study_id,session_date,session_time,trial_number,trial_type,category,subtype,image_name,id,designed_typicality,rating,rt,participant_id
borrowing_adult_artifacts,01/21/2026,17:20:06,0,typicality_rating,apples,apple,apple_apple_3_0.png,3,0,33,28044,10
borrowing_adult_artifacts,01/21/2026,17:20:06,1,typicality_rating,cups,teacup,cup_teacup_2_1.png,2,1,70,7241,10
borrowing_adult_artifacts,01/21/2026,17:20:06,2,typicality_rating,hats,party,hat_party_2_2.png,2,2,47,4577,10
borrowing_adult_artifacts,01/21/2026,17:20:06,3,typicality_rating,spoons,teaspoon,spoon_teaspoon_2_1.png,2,1,50,4005,10
borrowing_adult_artifacts,01/21/2026,17:20:06,4,typicality_rating,shells,spiral,shell_spiral_2_1.png,2,1,47,4430,10
borrowing_adult_artifacts,01/21/2026,17:20:06,5,typicality_rating,flowers,round,flower_round_2_1.png,2,1,57,3360,10
borrowing_adult_artifacts,01/21/2026,17:20:06,6,typicality_rating,mushrooms,disc,mushroom_disc_2_2.png,2,2,37,4259,10
borrowing_adult_artifacts,01/21/2026,17:20:06,7,typicality_rating,cups,sherry,cup_sherry_2_2.png,2,2,39,4710,10
borrowing_adult_artifacts,01/21/2026,17:20:06,8,typicality_rating,shoes,sneaker,shoe_sneaker_2_1.png,2,1,75,4575,10
borrowing_adult_artifacts,01/21/2026,17:20:06,9,typicality_rating,leaves,oak,leaf_oak_2_1.png,2,1,44,4006,10
borrowing_adult_artifacts,01/21/2026,17:20:06,10,typicality_rating,mushrooms,bell,mushroom_bell_2_2.png,2,2,60,4478,10
borrowing_adult_artifacts,01/21/2026,17:20:06,11,typicality_rating,flowers,trumpet,flower_trumpet_2_2.png,2,2,56,4441,10
borrowing_adult_artifacts,01/21/2026,17:20:06,12,typicality_rating,shoes,loafer,shoe_loafer_2_1.png,2,1,84,4749,10
borrowing_adult_artifacts,01/21/2026,17:20:06,13,typicality_rating,flowers,star,flower_star_2_1.png,2,1,80,4239,10
borrowing_adult_artifacts,01/21/2026,17:20:06,14,typicality_rating,broccoli,broccoli,broccoli_broccoli_3_0.png,3,0,59,5600,10
borrowing_adult_artifacts,01/21/2026,17:20:06,15,typicality_rating,spoons,square,spoon_square_2_2.png,2,2,45,4124,10
borrowing_adult_artifacts,01/21/2026,17:20:06,16,typicality_rating,shoes,ghillie,shoe_ghillie_2_2.png,2,2,53,3508,10
borrowing_adult_artifacts,01/21/2026,17:20:06,17,typicality_rating,shells,stingray,shell_stingray_2_2.png,2,2,8,5280,10
borrowing_adult_artifacts,01/21/2026,17:20:06,18,typicality_rating,broccoli,broccoli,broccoli_broccoli_4_0.png,4,0,50,4009,10
borrowing_adult_artifacts,01/21/2026,17:20:06,19,typicality_rating,hats,jester,hat_jester_2_2.png,2,2,31,12907,10
borrowing_adult_artifacts,01/21/2026,17:20:06,20,typicality_rating,spoons,slotted,spoon_slotted_2_2.png,2,2,60,4293,10
borrowing_adult_artifacts,01/21/2026,17:20:06,21,typicality_rating,carrots,carrot,carrot_carrot_4_0.png,4,0,79,4862,10
borrowing_adult_artifacts,01/21/2026,17:20:06,22,typicality_rating,mushrooms,enoki,mushroom_enoki_2_1.png,2,1,66,4843,10
borrowing_adult_artifacts,01/21/2026,17:20:06,23,typicality_rating,leaves,bean,leaf_bean_2_2.png,2,2,20,5827,10
borrowing_adult_artifacts,01/21/2026,17:20:06,24,typicality_rating,hats,ballcap,hat_ballcap_2_1.png,2,1,92,5008,10
borrowing_adult_artifacts,01/21/2026,17:20:06,25,typicality_rating,flowers,iris,flower_iris_2_2.png,2,2,96,4297,10
borrowing_adult_artifacts,01/21/2026,17:20:06,26,typicality_rating,strawberries,strawberry,strawberry_strawberry_3_0.png,3,0,94,5141,10
borrowing_adult_artifacts,01/21/2026,17:20:06,27,typicality_rating,carrots,carrot,carrot_carrot_3_0.png,3,0,78,4506,10
borrowing_adult_artifacts,01/21/2026,17:20:06,28,typicality_rating,leaves,heart,leaf_heart_2_2.png,2,2,34,4779,10
borrowing_adult_artifacts,01/21/2026,17:20:06,29,typicality_rating,leaves,droplet,leaf_droplet_2_1.png,2,1,74,6758,10
borrowing_adult_artifacts,01/21/2026,17:20:06,30,typicality_rating,shoes,elf,shoe_elf_2_2.png,2,2,44,3565,10
borrowing_adult_artifacts,01/21/2026,17:20:06,31,typicality_rating,apples,apple,apple_apple_4_0.png,4,0,75,3824,10
borrowing_adult_artifacts,01/21/2026,17:20:06,32,typicality_rating,cups,twohandled,cup_twohandled_2_2.png,2,2,75,4812,10
borrowing_adult_artifacts,01/21/2026,17:20:06,33,typicality_rating,cups,glass,cup_glass_2_1.png,2,1,80,3439,10
borrowing_adult_artifacts,01/21/2026,17:20:06,34,typicality_rating,mushrooms,toadstool,mushroom_toadstool_2_1.png,2,1,76,3461,10
borrowing_adult_artifacts,01/21/2026,17:20:06,35,typicality_rating,shells,fan,shell_fan_2_1.png,2,1,9,4312,10
borrowing_adult_artifacts,01/21/2026,17:20:06,36,typicality_rating,strawberries,strawberry,strawberry_strawberry_4_0.png,4,0,77,3875,10
borrowing_adult_artifacts,01/21/2026,17:20:06,37,typicality_rating,hats,sun,hat_sun_2_1.png,2,1,89,3309,10
borrowing_adult_artifacts,01/21/2026,17:20:06,38,typicality_rating,spoons,soup,spoon_soup_2_1.png,2,1,82,3979,10
borrowing_adult_artifacts,01/21/2026,17:20:06,39,typicality_rating,shells,urn,shell_urn_2_2.png,2,2,10,4246,10
borrowing_adult_artifacts,01/21/2026,19:15:06,0,typicality_rating,hats,jester,hat_jester_3_2.png,3,2,17,4285,2
borrowing_adult_artifacts,01/21/2026,19:15:06,1,typicality_rating,shells,fan,shell_fan_3_1.png,3,1,52,3684,2
borrowing_adult_artifacts,01/21/2026,19:15:06,2,typicality_rating,spoons,square,spoon_square_3_2.png,3,2,70,3183,2
borrowing_adult_artifacts,01/21/2026,19:15:06,3,typicality_rating,mushrooms,toadstool,mushroom_toadstool_3_1.png,3,1,94,2675,2
borrowing_adult_artifacts,01/21/2026,19:15:06,4,typicality_rating,shoes,elf,shoe_elf_3_2.png,3,2,25,3027,2
borrowing_adult_artifacts,01/21/2026,19:15:06,5,typicality_rating,broccoli,broccoli,broccoli_broccoli_5_0.png,5,0,97,2721,2
borrowing_adult_artifacts,01/21/2026,19:15:06,6,typicality_rating,leaves,oak,leaf_oak_3_1.png,3,1,95,2428,2
borrowing_adult_artifacts,01/21/2026,19:15:06,7,typicality_rating,flowers,round,flower_round_3_1.png,3,1,93,2595,2
borrowing_adult_artifacts,01/21/2026,19:15:06,8,typicality_rating,shoes,sneaker,shoe_sneaker_3_1.png,3,1,96,3060,2
borrowing_adult_artifacts,01/21/2026,19:15:06,9,typicality_rating,leaves,heart,leaf_heart_3_2.png,3,2,36,3418,2
borrowing_adult_artifacts,01/21/2026,19:15:06,10,typicality_rating,hats,ballcap,hat_ballcap_3_1.png,3,1,96,2460,2
borrowing_adult_artifacts,01/21/2026,19:15:06,11,typicality_rating,hats,sun,hat_sun_3_1.png,3,1,70,2129,2
borrowing_adult_artifacts,01/21/2026,19:15:06,12,typicality_rating,spoons,soup,spoon_soup_3_1.png,3,1,90,2141,2
borrowing_adult_artifacts,01/21/2026,19:15:06,13,typicality_rating,shells,urn,shell_urn_3_2.png,3,2,36,3755,2
borrowing_adult_artifacts,01/21/2026,19:15:06,14,typicality_rating,shells,spiral,shell_spiral_3_1.png,3,1,68,1993,2
borrowing_adult_artifacts,01/21/2026,19:15:06,15,typicality_rating,cups,glass,cup_glass_3_1.png,3,1,76,2708,2
borrowing_adult_artifacts,01/21/2026,19:15:06,16,typicality_rating,apples,apple,apple_apple_5_0.png,5,0,83,2116,2
borrowing_adult_artifacts,01/21/2026,19:15:06,17,typicality_rating,shoes,ghillie,shoe_ghillie_3_2.png,3,2,28,3822,2
borrowing_adult_artifacts,01/21/2026,19:15:06,18,typicality_rating,leaves,droplet,leaf_droplet_3_1.png,3,1,67,2403,2
borrowing_adult_artifacts,01/21/2026,19:15:06,19,typicality_rating,carrots,carrot,carrot_carrot_6_0.png,6,0,87,2562,2
borrowing_adult_artifacts,01/21/2026,19:15:06,20,typicality_rating,flowers,trumpet,flower_trumpet_3_2.png,3,2,25,2306,2
borrowing_adult_artifacts,01/21/2026,19:15:06,21,typicality_rating,shoes,loafer,shoe_loafer_3_1.png,3,1,74,2146,2
borrowing_adult_artifacts,01/21/2026,19:15:06,22,typicality_rating,mushrooms,disc,mushroom_disc_3_2.png,3,2,20,2460,2
borrowing_adult_artifacts,01/21/2026,19:15:06,23,typicality_rating,spoons,teaspoon,spoon_teaspoon_3_1.png,3,1,84,2558,2
borrowing_adult_artifacts,01/21/2026,19:15:06,24,typicality_rating,apples,apple,apple_apple_6_0.png,6,0,88,2203,2
borrowing_adult_artifacts,01/21/2026,19:15:06,25,typicality_rating,cups,twohandled,cup_twohandled_3_2.png,3,2,93,2709,2
borrowing_adult_artifacts,01/21/2026,19:15:06,26,typicality_rating,carrots,carrot,carrot_carrot_5_0.png,5,0,94,2164,2
borrowing_adult_artifacts,01/21/2026,19:15:06,27,typicality_rating,strawberries,strawberry,strawberry_strawberry_6_0.png,6,0,97,2396,2
borrowing_adult_artifacts,01/21/2026,19:15:06,28,typicality_rating,shells,stingray,shell_stingray_3_2.png,3,2,27,2406,2
borrowing_adult_artifacts,01/21/2026,19:15:06,29,typicality_rating,broccoli,broccoli,broccoli_broccoli_6_0.png,6,0,94,2156,2
borrowing_adult_artifacts,01/21/2026,19:15:06,30,typicality_rating,strawberries,strawberry,strawberry_strawberry_5_0.png,5,0,71,2005,2
borrowing_adult_artifacts,01/21/2026,19:15:06,31,typicality_rating,cups,teacup,cup_teacup_3_1.png,3,1,85,2194,2
borrowing_adult_artifacts,01/21/2026,19:15:06,32,typicality_rating,flowers,iris,flower_iris_3_2.png,3,2,35,2601,2
borrowing_adult_artifacts,01/21/2026,19:15:06,33,typicality_rating,cups,sherry,cup_sherry_3_2.png,3,2,59,2564,2
borrowing_adult_artifacts,01/21/2026,19:15:06,34,typicality_rating,mushrooms,bell,mushroom_bell_3_2.png,3,2,22,2409,2
borrowing_adult_artifacts,01/21/2026,19:15:06,35,typicality_rating,flowers,star,flower_star_3_1.png,3,1,81,2132,2
borrowing_adult_artifacts,01/21/2026,19:15:06,36,typicality_rating,spoons,slotted,spoon_slotted_3_2.png,3,2,64,2168,2
borrowing_adult_artifacts,01/21/2026,19:15:06,37,typicality_rating,mushrooms,enoki,mushroom_enoki_3_1.png,3,1,13,2028,2
borrowing_adult_artifacts,01/21/2026,19:15:06,38,typicality_rating,leaves,bean,leaf_bean_3_2.png,3,2,5,2501,2
borrowing_adult_artifacts,01/21/2026,19:15:06,39,typicality_rating,hats,party,hat_party_3_2.png,3,2,25,2302,2
borrowing_adult_artifacts,01/21/2026,20:15:01,0,typicality_rating,spoons,teaspoon,spoon_teaspoon_2_1.png,2,1,97,6478,25
borrowing_adult_artifacts,01/21/2026,20:15:01,1,typicality_rating,shoes,elf,shoe_elf_2_2.png,2,2,60,2693,25
borrowing_adult_artifacts,01/21/2026,20:15:01,2,typicality_rating,leaves,oak,leaf_oak_2_1.png,2,1,75,2303,25
borrowing_adult_artifacts,01/21/2026,20:15:01,3,typicality_rating,carrots,carrot,carrot_carrot_3_0.png,3,0,79,1805,25
borrowing_adult_artifacts,01/21/2026,20:15:01,4,typicality_rating,carrots,carrot,carrot_carrot_4_0.png,4,0,81,2999,25
borrowing_adult_artifacts,01/21/2026,20:15:01,5,typicality_rating,shoes,sneaker,shoe_sneaker_2_1.png,2,1,100,1822,25
borrowing_adult_artifacts,01/21/2026,20:15:01,6,typicality_rating,flowers,round,flower_round_2_1.png,2,1,77,3639,25
borrowing_adult_artifacts,01/21/2026,20:15:01,7,typicality_rating,cups,sherry,cup_sherry_2_2.png,2,2,39,3350,25
borrowing_adult_artifacts,01/21/2026,20:15:01,8,typicality_rating,apples,apple,apple_apple_4_0.png,4,0,81,1758,25
borrowing_adult_artifacts,01/21/2026,20:15:01,9,typicality_rating,mushrooms,toadstool,mushroom_toadstool_2_1.png,2,1,65,2198,25
borrowing_adult_artifacts,01/21/2026,20:15:01,10,typicality_rating,flowers,iris,flower_iris_2_2.png,2,2,54,2191,25
borrowing_adult_artifacts,01/21/2026,20:15:01,11,typicality_rating,shells,fan,shell_fan_2_1.png,2,1,80,4046,25
borrowing_adult_artifacts,01/21/2026,20:15:01,12,typicality_rating,leaves,heart,leaf_heart_2_2.png,2,2,33,4054,25
borrowing_adult_artifacts,01/21/2026,20:15:01,13,typicality_rating,strawberries,strawberry,strawberry_strawberry_4_0.png,4,0,93,1886,25
borrowing_adult_artifacts,01/21/2026,20:15:01,14,typicality_rating,hats,party,hat_party_2_2.png,2,2,73,2303,25
borrowing_adult_artifacts,01/21/2026,20:15:01,15,typicality_rating,shoes,ghillie,shoe_ghillie_2_2.png,2,2,84,2487,25
borrowing_adult_artifacts,01/21/2026,20:15:01,16,typicality_rating,strawberries,strawberry,strawberry_strawberry_3_0.png,3,0,76,1447,25
borrowing_adult_artifacts,01/21/2026,20:15:01,17,typicality_rating,hats,sun,hat_sun_2_1.png,2,1,47,3246,25
borrowing_adult_artifacts,01/21/2026,20:15:01,18,typicality_rating,spoons,soup,spoon_soup_2_1.png,2,1,38,2015,25
borrowing_adult_artifacts,01/21/2026,20:15:01,19,typicality_rating,cups,teacup,cup_teacup_2_1.png,2,1,100,2271,25
borrowing_adult_artifacts,01/21/2026,20:15:01,20,typicality_rating,shells,stingray,shell_stingray_2_2.png,2,2,6,3302,25
borrowing_adult_artifacts,01/21/2026,20:15:01,21,typicality_rating,spoons,slotted,spoon_slotted_2_2.png,2,2,44,3078,25
borrowing_adult_artifacts,01/21/2026,20:15:01,22,typicality_rating,shells,urn,shell_urn_2_2.png,2,2,74,3039,25
borrowing_adult_artifacts,01/21/2026,20:15:01,23,typicality_rating,mushrooms,enoki,mushroom_enoki_2_1.png,2,1,56,2039,25
borrowing_adult_artifacts,01/21/2026,20:15:01,24,typicality_rating,flowers,trumpet,flower_trumpet_2_2.png,2,2,60,6702,25
borrowing_adult_artifacts,01/21/2026,20:15:01,25,typicality_rating,flowers,star,flower_star_2_1.png,2,1,81,1527,25
borrowing_adult_artifacts,01/21/2026,20:15:01,26,typicality_rating,shoes,loafer,shoe_loafer_2_1.png,2,1,50,1271,25
borrowing_adult_artifacts,01/21/2026,20:15:01,27,typicality_rating,shells,spiral,shell_spiral_2_1.png,2,1,73,2055,25
borrowing_adult_artifacts,01/21/2026,20:15:01,28,typicality_rating,cups,twohandled,cup_twohandled_2_2.png,2,2,5,1959,25
borrowing_adult_artifacts,01/21/2026,20:15:01,29,typicality_rating,apples,apple,apple_apple_3_0.png,3,0,74,1790,25
borrowing_adult_artifacts,01/21/2026,20:15:01,30,typicality_rating,mushrooms,disc,mushroom_disc_2_2.png,2,2,26,1974,25
borrowing_adult_artifacts,01/21/2026,20:15:01,31,typicality_rating,leaves,droplet,leaf_droplet_2_1.png,2,1,97,1847,25
borrowing_adult_artifacts,01/21/2026,20:15:01,32,typicality_rating,hats,ballcap,hat_ballcap_2_1.png,2,1,97,1646,25
borrowing_adult_artifacts,01/21/2026,20:15:01,33,typicality_rating,leaves,bean,leaf_bean_2_2.png,2,2,14,1718,25
borrowing_adult_artifacts,01/21/2026,20:15:01,34,typicality_rating,broccoli,broccoli,broccoli_broccoli_4_0.png,4,0,84,2230,25
borrowing_adult_artifacts,01/21/2026,20:15:01,35,typicality_rating,mushrooms,bell,mushroom_bell_2_2.png,2,2,52,1887,25
borrowing_adult_artifacts,01/21/2026,20:15:01,36,typicality_rating,hats,jester,hat_jester_2_2.png,2,2,34,1895,25
borrowing_adult_artifacts,01/21/2026,20:15:01,37,typicality_rating,broccoli,broccoli,broccoli_broccoli_3_0.png,3,0,83,1767,25
borrowing_adult_artifacts,01/21/2026,20:15:01,38,typicality_rating,spoons,square,spoon_square_2_2.png,2,2,8,2142,25
borrowing_adult_artifacts,01/21/2026,20:15:01,39,typicality_rating,cups,glass,cup_glass_2_1.png,2,1,77,2718,25
borrowing_adult_artifacts,01/21/2026,20:19:37,0,typicality_rating,mushrooms,disc,mushroom_disc_1_2.png,1,2,46,8952,28
borrowing_adult_artifacts,01/21/2026,20:19:37,1,typicality_rating,cups,glass,cup_glass_1_1.png,1,1,62,13468,28
borrowing_adult_artifacts,01/21/2026,20:19:37,2,typicality_rating,leaves,heart,leaf_heart_1_2.png,1,2,43,6123,28
borrowing_adult_artifacts,01/21/2026,20:19:37,3,typicality_rating,flowers,trumpet,flower_trumpet_1_2.png,1,2,19,4308,28
borrowing_adult_artifacts,01/21/2026,20:19:37,4,typicality_rating,spoons,soup,spoon_soup_1_1.png,1,1,90,4113,28
borrowing_adult_artifacts,01/21/2026,20:19:37,5,typicality_rating,hats,sun,hat_sun_1_1.png,1,1,92,3052,28
borrowing_adult_artifacts,01/21/2026,20:19:37,6,typicality_rating,shoes,elf,shoe_elf_1_2.png,1,2,36,5199,28
borrowing_adult_artifacts,01/21/2026,20:19:37,7,typicality_rating,hats,ballcap,hat_ballcap_1_1.png,1,1,100,3069,28
borrowing_adult_artifacts,01/21/2026,20:19:37,8,typicality_rating,flowers,star,flower_star_1_1.png,1,1,96,3441,28
borrowing_adult_artifacts,01/21/2026,20:19:37,9,typicality_rating,flowers,iris,flower_iris_1_2.png,1,2,52,4833,28
borrowing_adult_artifacts,01/21/2026,20:19:37,10,typicality_rating,apples,apple,apple_apple_1_0.png,1,0,87,3085,28
borrowing_adult_artifacts,01/21/2026,20:19:37,11,typicality_rating,carrots,carrot,carrot_carrot_2_0.png,2,0,87,2555,28
borrowing_adult_artifacts,01/21/2026,20:19:37,12,typicality_rating,shells,spiral,shell_spiral_1_1.png,1,1,82,2531,28
borrowing_adult_artifacts,01/21/2026,20:19:37,13,typicality_rating,strawberries,strawberry,strawberry_strawberry_1_0.png,1,0,100,4167,28
borrowing_adult_artifacts,01/21/2026,20:19:37,14,typicality_rating,shells,stingray,shell_stingray_1_2.png,1,2,52,4470,28
borrowing_adult_artifacts,01/21/2026,20:19:37,15,typicality_rating,carrots,carrot,carrot_carrot_1_0.png,1,0,100,2645,28
borrowing_adult_artifacts,01/21/2026,20:19:37,16,typicality_rating,broccoli,broccoli,broccoli_broccoli_2_0.png,2,0,100,2836,28
borrowing_adult_artifacts,01/21/2026,20:19:37,17,typicality_rating,strawberries,strawberry,strawberry_strawberry_2_0.png,2,0,100,2842,28
borrowing_adult_artifacts,01/21/2026,20:19:37,18,typicality_rating,mushrooms,toadstool,mushroom_toadstool_1_1.png,1,1,100,5532,28
borrowing_adult_artifacts,01/21/2026,20:19:37,19,typicality_rating,shells,urn,shell_urn_1_2.png,1,2,68,3827,28
borrowing_adult_artifacts,01/21/2026,20:19:37,20,typicality_rating,apples,apple,apple_apple_2_0.png,2,0,85,2881,28
borrowing_adult_artifacts,01/21/2026,20:19:37,21,typicality_rating,leaves,oak,leaf_oak_1_1.png,1,1,70,6799,28
borrowing_adult_artifacts,01/21/2026,20:19:37,22,typicality_rating,shells,fan,shell_fan_1_1.png,1,1,48,4676,28
borrowing_adult_artifacts,01/21/2026,20:19:37,23,typicality_rating,cups,twohandled,cup_twohandled_1_2.png,1,2,32,5862,28
borrowing_adult_artifacts,01/21/2026,20:19:37,24,typicality_rating,mushrooms,bell,mushroom_bell_1_2.png,1,2,54,3979,28
borrowing_adult_artifacts,01/21/2026,20:19:37,25,typicality_rating,hats,jester,hat_jester_1_2.png,1,2,18,8655,28
borrowing_adult_artifacts,01/21/2026,20:19:37,26,typicality_rating,shoes,loafer,shoe_loafer_1_1.png,1,1,81,3841,28
borrowing_adult_artifacts,01/21/2026,20:19:37,27,typicality_rating,flowers,round,flower_round_1_1.png,1,1,83,3519,28
borrowing_adult_artifacts,01/21/2026,20:19:37,28,typicality_rating,spoons,square,spoon_square_1_2.png,1,2,46,8103,28
borrowing_adult_artifacts,01/21/2026,20:19:37,29,typicality_rating,hats,party,hat_party_1_2.png,1,2,27,4942,28
borrowing_adult_artifacts,01/21/2026,20:19:37,30,typicality_rating,cups,teacup,cup_teacup_1_1.png,1,1,78,3826,28
borrowing_adult_artifacts,01/21/2026,20:19:37,31,typicality_rating,shoes,ghillie,shoe_ghillie_1_2.png,1,2,22,3275,28
borrowing_adult_artifacts,01/21/2026,20:19:37,32,typicality_rating,cups,sherry,cup_sherry_1_2.png,1,2,14,4341,28
borrowing_adult_artifacts,01/21/2026,20:19:37,33,typicality_rating,leaves,bean,leaf_bean_1_2.png,1,2,10,3350,28
borrowing_adult_artifacts,01/21/2026,20:19:37,34,typicality_rating,broccoli,broccoli,broccoli_broccoli_1_0.png,1,0,99,2912,28
borrowing_adult_artifacts,01/21/2026,20:19:37,35,typicality_rating,mushrooms,enoki,mushroom_enoki_1_1.png,1,1,48,3327,28
borrowing_adult_artifacts,01/21/2026,20:19:37,36,typicality_rating,leaves,droplet,leaf_droplet_1_1.png,1,1,92,2825,28
borrowing_adult_artifacts,01/21/2026,20:19:37,37,typicality_rating,spoons,slotted,spoon_slotted_1_2.png,1,2,38,4903,28
borrowing_adult_artifacts,01/21/2026,20:19:37,38,typicality_rating,shoes,sneaker,shoe_sneaker_1_1.png,1,1,86,2810,28
borrowing_adult_artifacts,01/21/2026,20:19:37,39,typicality_rating,spoons,teaspoon,spoon_teaspoon_1_1.png,1,1,94,2975,28
borrowing_adult_artifacts,01/21/2026,20:18:39,0,typicality_rating,mushrooms,enoki,mushroom_enoki_2_1.png,2,1,97,6275,30
borrowing_adult_artifacts,01/21/2026,20:18:39,1,typicality_rating,cups,sherry,cup_sherry_2_2.png,2,2,4,7409,30
borrowing_adult_artifacts,01/21/2026,20:18:39,2,typicality_rating,carrots,carrot,carrot_carrot_3_0.png,3,0,96,4788,30
borrowing_adult_artifacts,01/21/2026,20:18:39,3,typicality_rating,apples,apple,apple_apple_4_0.png,4,0,99,3621,30
borrowing_adult_artifacts,01/21/2026,20:18:39,4,typicality_rating,hats,sun,hat_sun_2_1.png,2,1,2,5236,30
borrowing_adult_artifacts,01/21/2026,20:18:39,5,typicality_rating,shells,stingray,shell_stingray_2_2.png,2,2,14,5751,30
borrowing_adult_artifacts,01/21/2026,20:18:39,6,typicality_rating,shoes,ghillie,shoe_ghillie_2_2.png,2,2,30,9585,30
borrowing_adult_artifacts,01/21/2026,20:18:39,7,typicality_rating,cups,twohandled,cup_twohandled_2_2.png,2,2,0,4287,30
borrowing_adult_artifacts,01/21/2026,20:18:39,8,typicality_rating,leaves,droplet,leaf_droplet_2_1.png,2,1,98,4391,30
borrowing_adult_artifacts,01/21/2026,20:18:39,9,typicality_rating,flowers,trumpet,flower_trumpet_2_2.png,2,2,31,4365,30
borrowing_adult_artifacts,01/21/2026,20:18:39,10,typicality_rating,mushrooms,disc,mushroom_disc_2_2.png,2,2,71,4396,30
borrowing_adult_artifacts,01/21/2026,20:18:39,11,typicality_rating,apples,apple,apple_apple_3_0.png,3,0,98,3293,30
borrowing_adult_artifacts,01/21/2026,20:18:39,12,typicality_rating,hats,party,hat_party_2_2.png,2,2,5,3653,30
borrowing_adult_artifacts,01/21/2026,20:18:39,13,typicality_rating,spoons,slotted,spoon_slotted_2_2.png,2,2,5,4131,30
borrowing_adult_artifacts,01/21/2026,20:18:39,14,typicality_rating,mushrooms,bell,mushroom_bell_2_2.png,2,2,15,4306,30
borrowing_adult_artifacts,01/21/2026,20:18:39,15,typicality_rating,hats,jester,hat_jester_2_2.png,2,2,0,3189,30
borrowing_adult_artifacts,01/21/2026,20:18:39,16,typicality_rating,leaves,heart,leaf_heart_2_2.png,2,2,19,6239,30
borrowing_adult_artifacts,01/21/2026,20:18:39,17,typicality_rating,broccoli,broccoli,broccoli_broccoli_4_0.png,4,0,99,4144,30
borrowing_adult_artifacts,01/21/2026,20:18:39,18,typicality_rating,leaves,bean,leaf_bean_2_2.png,2,2,9,3825,30
borrowing_adult_artifacts,01/21/2026,20:18:39,19,typicality_rating,shoes,loafer,shoe_loafer_2_1.png,2,1,52,3257,30
borrowing_adult_artifacts,01/21/2026,20:18:39,20,typicality_rating,shells,urn,shell_urn_2_2.png,2,2,10,3260,30
borrowing_adult_artifacts,01/21/2026,20:18:39,21,typicality_rating,cups,teacup,cup_teacup_2_1.png,2,1,81,4275,30
borrowing_adult_artifacts,01/21/2026,20:18:39,22,typicality_rating,spoons,soup,spoon_soup_2_1.png,2,1,100,3088,30
borrowing_adult_artifacts,01/21/2026,20:18:39,23,typicality_rating,strawberries,strawberry,strawberry_strawberry_4_0.png,4,0,100,3402,30
borrowing_adult_artifacts,01/21/2026,20:18:39,24,typicality_rating,cups,glass,cup_glass_2_1.png,2,1,82,3747,30
borrowing_adult_artifacts,01/21/2026,20:18:39,25,typicality_rating,carrots,carrot,carrot_carrot_4_0.png,4,0,100,3726,30
borrowing_adult_artifacts,01/21/2026,20:18:39,26,typicality_rating,spoons,square,spoon_square_2_2.png,2,2,2,3292,30
borrowing_adult_artifacts,01/21/2026,20:18:39,27,typicality_rating,strawberries,strawberry,strawberry_strawberry_3_0.png,3,0,97,4056,30
borrowing_adult_artifacts,01/21/2026,20:18:39,28,typicality_rating,shoes,elf,shoe_elf_2_2.png,2,2,0,3518,30
borrowing_adult_artifacts,01/21/2026,20:18:39,29,typicality_rating,hats,ballcap,hat_ballcap_2_1.png,2,1,99,3418,30
borrowing_adult_artifacts,01/21/2026,20:18:39,30,typicality_rating,flowers,round,flower_round_2_1.png,2,1,96,4085,30
borrowing_adult_artifacts,01/21/2026,20:18:39,31,typicality_rating,leaves,oak,leaf_oak_2_1.png,2,1,50,3970,30
borrowing_adult_artifacts,01/21/2026,20:18:39,32,typicality_rating,spoons,teaspoon,spoon_teaspoon_2_1.png,2,1,100,5273,30
borrowing_adult_artifacts,01/21/2026,20:18:39,33,typicality_rating,mushrooms,toadstool,mushroom_toadstool_2_1.png,2,1,77,4441,30
borrowing_adult_artifacts,01/21/2026,20:18:39,34,typicality_rating,flowers,iris,flower_iris_2_2.png,2,2,0,4644,30
borrowing_adult_artifacts,01/21/2026,20:18:39,35,typicality_rating,shoes,sneaker,shoe_sneaker_2_1.png,2,1,86,4224,30
borrowing_adult_artifacts,01/21/2026,20:18:39,36,typicality_rating,shells,fan,shell_fan_2_1.png,2,1,91,3618,30
borrowing_adult_artifacts,01/21/2026,20:18:39,37,typicality_rating,shells,spiral,shell_spiral_2_1.png,2,1,50,4242,30
borrowing_adult_artifacts,01/21/2026,20:18:39,38,typicality_rating,flowers,star,flower_star_2_1.png,2,1,95,3258,30
borrowing_adult_artifacts,01/21/2026,20:18:39,39,typicality_rating,broccoli,broccoli,broccoli_broccoli_3_0.png,3,0,88,4027,30
borrowing_adult_artifacts,01/21/2026,20:18:57,0,typicality_rating,apples,apple,apple_apple_2_0.png,2,0,73,8058,5
borrowing_adult_artifacts,01/21/2026,20:18:57,1,typicality_rating,spoons,square,spoon_square_1_2.png,1,2,43,7446,5
borrowing_adult_artifacts,01/21/2026,20:18:57,2,typicality_rating,shells,fan,shell_fan_1_1.png,1,1,57,4498,5
borrowing_adult_artifacts,01/21/2026,20:18:57,3,typicality_rating,flowers,round,flower_round_1_1.png,1,1,85,5212,5
borrowing_adult_artifacts,01/21/2026,20:18:57,4,typicality_rating,broccoli,broccoli,broccoli_broccoli_2_0.png,2,0,74,4378,5
borrowing_adult_artifacts,01/21/2026,20:18:57,5,typicality_rating,shoes,sneaker,shoe_sneaker_1_1.png,1,1,71,3703,5
borrowing_adult_artifacts,01/21/2026,20:18:57,6,typicality_rating,strawberries,strawberry,strawberry_strawberry_1_0.png,1,0,68,3187,5
borrowing_adult_artifacts,01/21/2026,20:18:57,7,typicality_rating,cups,glass,cup_glass_1_1.png,1,1,50,3810,5
borrowing_adult_artifacts,01/21/2026,20:18:57,8,typicality_rating,spoons,slotted,spoon_slotted_1_2.png,1,2,79,4941,5
borrowing_adult_artifacts,01/21/2026,20:18:57,9,typicality_rating,mushrooms,bell,mushroom_bell_1_2.png,1,2,38,4318,5
borrowing_adult_artifacts,01/21/2026,20:18:57,10,typicality_rating,shoes,elf,shoe_elf_1_2.png,1,2,65,4281,5
borrowing_adult_artifacts,01/21/2026,20:18:57,11,typicality_rating,shells,urn,shell_urn_1_2.png,1,2,28,4627,5
borrowing_adult_artifacts,01/21/2026,20:18:57,12,typicality_rating,shells,stingray,shell_stingray_1_2.png,1,2,16,4566,5
borrowing_adult_artifacts,01/21/2026,20:18:57,13,typicality_rating,carrots,carrot,carrot_carrot_1_0.png,1,0,83,3524,5
borrowing_adult_artifacts,01/21/2026,20:18:57,14,typicality_rating,carrots,carrot,carrot_carrot_2_0.png,2,0,81,2661,5
borrowing_adult_artifacts,01/21/2026,20:18:57,15,typicality_rating,flowers,trumpet,flower_trumpet_1_2.png,1,2,16,6171,5
borrowing_adult_artifacts,01/21/2026,20:18:57,16,typicality_rating,mushrooms,toadstool,mushroom_toadstool_1_1.png,1,1,77,7859,5
borrowing_adult_artifacts,01/21/2026,20:18:57,17,typicality_rating,spoons,soup,spoon_soup_1_1.png,1,1,92,4934,5
borrowing_adult_artifacts,01/21/2026,20:18:57,18,typicality_rating,mushrooms,disc,mushroom_disc_1_2.png,1,2,30,3380,5
borrowing_adult_artifacts,01/21/2026,20:18:57,19,typicality_rating,hats,jester,hat_jester_1_2.png,1,2,30,3868,5
borrowing_adult_artifacts,01/21/2026,20:18:57,20,typicality_rating,shoes,loafer,shoe_loafer_1_1.png,1,1,84,4056,5
borrowing_adult_artifacts,01/21/2026,20:18:57,21,typicality_rating,hats,sun,hat_sun_1_1.png,1,1,86,3201,5
borrowing_adult_artifacts,01/21/2026,20:18:57,22,typicality_rating,spoons,teaspoon,spoon_teaspoon_1_1.png,1,1,92,4971,5
borrowing_adult_artifacts,01/21/2026,20:18:57,23,typicality_rating,hats,party,hat_party_1_2.png,1,2,20,3772,5
borrowing_adult_artifacts,01/21/2026,20:18:57,24,typicality_rating,flowers,star,flower_star_1_1.png,1,1,86,3157,5
borrowing_adult_artifacts,01/21/2026,20:18:57,25,typicality_rating,cups,twohandled,cup_twohandled_1_2.png,1,2,59,3831,5
borrowing_adult_artifacts,01/21/2026,20:18:57,26,typicality_rating,hats,ballcap,hat_ballcap_1_1.png,1,1,89,4146,5
borrowing_adult_artifacts,01/21/2026,20:18:57,27,typicality_rating,leaves,bean,leaf_bean_1_2.png,1,2,4,3681,5
borrowing_adult_artifacts,01/21/2026,20:18:57,28,typicality_rating,leaves,heart,leaf_heart_1_2.png,1,2,34,5421,5
borrowing_adult_artifacts,01/21/2026,20:18:57,29,typicality_rating,shoes,ghillie,shoe_ghillie_1_2.png,1,2,30,3044,5
borrowing_adult_artifacts,01/21/2026,20:18:57,30,typicality_rating,leaves,droplet,leaf_droplet_1_1.png,1,1,68,3472,5
borrowing_adult_artifacts,01/21/2026,20:18:57,31,typicality_rating,broccoli,broccoli,broccoli_broccoli_1_0.png,1,0,31,3689,5
borrowing_adult_artifacts,01/21/2026,20:18:57,32,typicality_rating,cups,sherry,cup_sherry_1_2.png,1,2,27,4409,5
borrowing_adult_artifacts,01/21/2026,20:18:57,33,typicality_rating,mushrooms,enoki,mushroom_enoki_1_1.png,1,1,23,2744,5
borrowing_adult_artifacts,01/21/2026,20:18:57,34,typicality_rating,leaves,oak,leaf_oak_1_1.png,1,1,61,4296,5
borrowing_adult_artifacts,01/21/2026,20:18:57,35,typicality_rating,shells,spiral,shell_spiral_1_1.png,1,1,70,3321,5
borrowing_adult_artifacts,01/21/2026,20:18:57,36,typicality_rating,strawberries,strawberry,strawberry_strawberry_2_0.png,2,0,72,3247,5
borrowing_adult_artifacts,01/21/2026,20:18:57,37,typicality_rating,cups,teacup,cup_teacup_1_1.png,1,1,93,4161,5
borrowing_adult_artifacts,01/21/2026,20:18:57,38,typicality_rating,apples,apple,apple_apple_1_0.png,1,0,30,3306,5
borrowing_adult_artifacts,01/21/2026,20:18:57,39,typicality_rating,flowers,iris,flower_iris_1_2.png,1,2,10,5190,5
borrowing_adult_artifacts,01/21/2026,20:38:34,0,typicality_rating,shoes,ghillie,shoe_ghillie_2_2.png,2,2,100,4226,9
borrowing_adult_artifacts,01/21/2026,20:38:34,1,typicality_rating,leaves,droplet,leaf_droplet_2_1.png,2,1,100,3682,9
borrowing_adult_artifacts,01/21/2026,20:38:34,2,typicality_rating,cups,twohandled,cup_twohandled_2_2.png,2,2,4,3632,9
borrowing_adult_artifacts,01/21/2026,20:38:34,3,typicality_rating,carrots,carrot,carrot_carrot_3_0.png,3,0,100,3398,9
borrowing_adult_artifacts,01/21/2026,20:38:34,4,typicality_rating,flowers,round,flower_round_2_1.png,2,1,100,5899,9
borrowing_adult_artifacts,01/21/2026,20:38:34,5,typicality_rating,cups,teacup,cup_teacup_2_1.png,2,1,99,2429,9
borrowing_adult_artifacts,01/21/2026,20:38:34,6,typicality_rating,leaves,bean,leaf_bean_2_2.png,2,2,12,3403,9
borrowing_adult_artifacts,01/21/2026,20:38:34,7,typicality_rating,shoes,sneaker,shoe_sneaker_2_1.png,2,1,100,2394,9
borrowing_adult_artifacts,01/21/2026,20:38:34,8,typicality_rating,leaves,oak,leaf_oak_2_1.png,2,1,68,3565,9
borrowing_adult_artifacts,01/21/2026,20:38:34,9,typicality_rating,shells,stingray,shell_stingray_2_2.png,2,2,62,2616,9
borrowing_adult_artifacts,01/21/2026,20:38:34,10,typicality_rating,flowers,iris,flower_iris_2_2.png,2,2,63,2747,9
borrowing_adult_artifacts,01/21/2026,20:38:34,11,typicality_rating,flowers,trumpet,flower_trumpet_2_2.png,2,2,63,2465,9
borrowing_adult_artifacts,01/21/2026,20:38:34,12,typicality_rating,leaves,heart,leaf_heart_2_2.png,2,2,34,2698,9
borrowing_adult_artifacts,01/21/2026,20:38:34,13,typicality_rating,strawberries,strawberry,strawberry_strawberry_3_0.png,3,0,100,1934,9
borrowing_adult_artifacts,01/21/2026,20:38:34,14,typicality_rating,mushrooms,enoki,mushroom_enoki_2_1.png,2,1,75,2611,9
borrowing_adult_artifacts,01/21/2026,20:38:34,15,typicality_rating,mushrooms,bell,mushroom_bell_2_2.png,2,2,47,1965,9
borrowing_adult_artifacts,01/21/2026,20:38:34,16,typicality_rating,hats,ballcap,hat_ballcap_2_1.png,2,1,100,3715,9
borrowing_adult_artifacts,01/21/2026,20:38:34,17,typicality_rating,cups,glass,cup_glass_2_1.png,2,1,100,2450,9
borrowing_adult_artifacts,01/21/2026,20:38:34,18,typicality_rating,flowers,star,flower_star_2_1.png,2,1,89,2663,9
borrowing_adult_artifacts,01/21/2026,20:38:34,19,typicality_rating,mushrooms,toadstool,mushroom_toadstool_2_1.png,2,1,77,5432,9
borrowing_adult_artifacts,01/21/2026,20:38:34,20,typicality_rating,spoons,teaspoon,spoon_teaspoon_2_1.png,2,1,100,10515,9
borrowing_adult_artifacts,01/21/2026,20:38:34,21,typicality_rating,apples,apple,apple_apple_3_0.png,3,0,99,2067,9
borrowing_adult_artifacts,01/21/2026,20:38:34,22,typicality_rating,mushrooms,disc,mushroom_disc_2_2.png,2,2,58,2879,9
borrowing_adult_artifacts,01/21/2026,20:38:34,23,typicality_rating,shells,urn,shell_urn_2_2.png,2,2,86,2649,9
borrowing_adult_artifacts,01/21/2026,20:38:34,24,typicality_rating,spoons,soup,spoon_soup_2_1.png,2,1,100,2182,9
borrowing_adult_artifacts,01/21/2026,20:38:34,25,typicality_rating,shoes,loafer,shoe_loafer_2_1.png,2,1,100,19749,9
borrowing_adult_artifacts,01/21/2026,20:38:34,26,typicality_rating,broccoli,broccoli,broccoli_broccoli_3_0.png,3,0,100,4998,9
borrowing_adult_artifacts,01/21/2026,20:38:34,27,typicality_rating,shells,spiral,shell_spiral_2_1.png,2,1,77,2949,9
borrowing_adult_artifacts,01/21/2026,20:38:34,28,typicality_rating,hats,sun,hat_sun_2_1.png,2,1,100,2149,9
borrowing_adult_artifacts,01/21/2026,20:38:34,29,typicality_rating,apples,apple,apple_apple_4_0.png,4,0,100,3949,9
borrowing_adult_artifacts,01/21/2026,20:38:34,30,typicality_rating,spoons,slotted,spoon_slotted_2_2.png,2,2,50,2869,9
borrowing_adult_artifacts,01/21/2026,20:38:34,31,typicality_rating,cups,sherry,cup_sherry_2_2.png,2,2,38,2644,9
borrowing_adult_artifacts,01/21/2026,20:38:34,32,typicality_rating,strawberries,strawberry,strawberry_strawberry_4_0.png,4,0,100,3088,9
borrowing_adult_artifacts,01/21/2026,20:38:34,33,typicality_rating,shells,fan,shell_fan_2_1.png,2,1,83,2909,9
borrowing_adult_artifacts,01/21/2026,20:38:34,34,typicality_rating,shoes,elf,shoe_elf_2_2.png,2,2,37,2248,9
borrowing_adult_artifacts,01/21/2026,20:38:34,35,typicality_rating,broccoli,broccoli,broccoli_broccoli_4_0.png,4,0,100,25799,9
borrowing_adult_artifacts,01/21/2026,20:38:34,36,typicality_rating,hats,jester,hat_jester_2_2.png,2,2,46,2216,9
borrowing_adult_artifacts,01/21/2026,20:38:34,37,typicality_rating,spoons,square,spoon_square_2_2.png,2,2,3,12080,9
borrowing_adult_artifacts,01/21/2026,20:38:34,38,typicality_rating,hats,party,hat_party_2_2.png,2,2,29,7649,9
borrowing_adult_artifacts,01/21/2026,20:38:34,39,typicality_rating,carrots,carrot,carrot_carrot_4_0.png,4,0,100,4682,9
borrowing_adult_artifacts,01/21/2026,17:22:07,0,typicality_rating,leaves,heart,leaf_heart_3_2.png,3,2,44,9087,6
borrowing_adult_artifacts,01/21/2026,17:22:07,1,typicality_rating,cups,twohandled,cup_twohandled_3_2.png,3,2,39,8647,6
borrowing_adult_artifacts,01/21/2026,17:22:07,2,typicality_rating,shoes,ghillie,shoe_ghillie_3_2.png,3,2,63,6098,6
borrowing_adult_artifacts,01/21/2026,17:22:07,3,typicality_rating,cups,sherry,cup_sherry_3_2.png,3,2,64,6833,6
borrowing_adult_artifacts,01/21/2026,17:22:07,4,typicality_rating,apples,apple,apple_apple_5_0.png,5,0,79,7713,6
borrowing_adult_artifacts,01/21/2026,17:22:07,5,typicality_rating,apples,apple,apple_apple_6_0.png,6,0,93,3355,6
borrowing_adult_artifacts,01/21/2026,17:22:07,6,typicality_rating,broccoli,broccoli,broccoli_broccoli_5_0.png,5,0,92,5389,6
borrowing_adult_artifacts,01/21/2026,17:22:07,7,typicality_rating,shells,fan,shell_fan_3_1.png,3,1,78,5029,6
borrowing_adult_artifacts,01/21/2026,17:22:07,8,typicality_rating,mushrooms,disc,mushroom_disc_3_2.png,3,2,57,3502,6
borrowing_adult_artifacts,01/21/2026,17:22:07,9,typicality_rating,hats,sun,hat_sun_3_1.png,3,1,94,5396,6
borrowing_adult_artifacts,01/21/2026,17:22:07,10,typicality_rating,mushrooms,toadstool,mushroom_toadstool_3_1.png,3,1,80,5300,6
borrowing_adult_artifacts,01/21/2026,17:22:07,11,typicality_rating,leaves,droplet,leaf_droplet_3_1.png,3,1,97,3789,6
borrowing_adult_artifacts,01/21/2026,17:22:07,12,typicality_rating,hats,ballcap,hat_ballcap_3_1.png,3,1,100,2464,6
borrowing_adult_artifacts,01/21/2026,17:22:07,13,typicality_rating,carrots,carrot,carrot_carrot_6_0.png,6,0,88,3123,6
borrowing_adult_artifacts,01/21/2026,17:22:07,14,typicality_rating,carrots,carrot,carrot_carrot_5_0.png,5,0,93,3014,6
borrowing_adult_artifacts,01/21/2026,17:22:07,15,typicality_rating,strawberries,strawberry,strawberry_strawberry_5_0.png,5,0,80,3383,6
borrowing_adult_artifacts,01/21/2026,17:22:07,16,typicality_rating,flowers,iris,flower_iris_3_2.png,3,2,37,7746,6
borrowing_adult_artifacts,01/21/2026,17:22:07,17,typicality_rating,leaves,bean,leaf_bean_3_2.png,3,2,50,4018,6
borrowing_adult_artifacts,01/21/2026,17:22:07,18,typicality_rating,mushrooms,enoki,mushroom_enoki_3_1.png,3,1,50,3430,6
borrowing_adult_artifacts,01/21/2026,17:22:07,19,typicality_rating,shells,spiral,shell_spiral_3_1.png,3,1,75,5256,6
borrowing_adult_artifacts,01/21/2026,17:22:07,20,typicality_rating,spoons,soup,spoon_soup_3_1.png,3,1,93,2487,6
borrowing_adult_artifacts,01/21/2026,17:22:07,21,typicality_rating,strawberries,strawberry,strawberry_strawberry_6_0.png,6,0,94,2225,6
borrowing_adult_artifacts,01/21/2026,17:22:07,22,typicality_rating,shells,urn,shell_urn_3_2.png,3,2,43,6059,6
borrowing_adult_artifacts,01/21/2026,17:22:07,23,typicality_rating,hats,jester,hat_jester_3_2.png,3,2,35,5183,6
borrowing_adult_artifacts,01/21/2026,17:22:07,24,typicality_rating,flowers,round,flower_round_3_1.png,3,1,85,7437,6
borrowing_adult_artifacts,01/21/2026,17:22:07,25,typicality_rating,mushrooms,bell,mushroom_bell_3_2.png,3,2,42,3141,6
borrowing_adult_artifacts,01/21/2026,17:22:07,26,typicality_rating,cups,teacup,cup_teacup_3_1.png,3,1,99,3079,6
borrowing_adult_artifacts,01/21/2026,17:22:07,27,typicality_rating,shoes,loafer,shoe_loafer_3_1.png,3,1,100,2307,6
borrowing_adult_artifacts,01/21/2026,17:22:07,28,typicality_rating,shells,stingray,shell_stingray_3_2.png,3,2,32,4166,6
borrowing_adult_artifacts,01/21/2026,17:22:07,29,typicality_rating,leaves,oak,leaf_oak_3_1.png,3,1,77,4372,6
borrowing_adult_artifacts,01/21/2026,17:22:07,30,typicality_rating,shoes,elf,shoe_elf_3_2.png,3,2,36,4732,6
borrowing_adult_artifacts,01/21/2026,17:22:07,31,typicality_rating,shoes,sneaker,shoe_sneaker_3_1.png,3,1,99,2384,6
borrowing_adult_artifacts,01/21/2026,17:22:07,32,typicality_rating,flowers,star,flower_star_3_1.png,3,1,100,2440,6
borrowing_adult_artifacts,01/21/2026,17:22:07,33,typicality_rating,spoons,slotted,spoon_slotted_3_2.png,3,2,63,7605,6
borrowing_adult_artifacts,01/21/2026,17:22:07,34,typicality_rating,broccoli,broccoli,broccoli_broccoli_6_0.png,6,0,99,2541,6
borrowing_adult_artifacts,01/21/2026,17:22:07,35,typicality_rating,spoons,teaspoon,spoon_teaspoon_3_1.png,3,1,100,2021,6
borrowing_adult_artifacts,01/21/2026,17:22:07,36,typicality_rating,spoons,square,spoon_square_3_2.png,3,2,31,6209,6
borrowing_adult_artifacts,01/21/2026,17:22:07,37,typicality_rating,hats,party,hat_party_3_2.png,3,2,43,3716,6
borrowing_adult_artifacts,01/21/2026,17:22:07,38,typicality_rating,flowers,trumpet,flower_trumpet_3_2.png,3,2,23,3346,6
borrowing_adult_artifacts,01/21/2026,17:22:07,39,typicality_rating,cups,glass,cup_glass_3_1.png,3,1,100,3191,6
borrowing_adult_artifacts,01/22/2026,01:27:20,0,typicality_rating,leaves,droplet,leaf_droplet_3_1.png,3,1,100,3945,17
borrowing_adult_artifacts,01/22/2026,01:27:20,1,typicality_rating,hats,jester,hat_jester_3_2.png,3,2,31,9087,17
borrowing_adult_artifacts,01/22/2026,01:27:20,2,typicality_rating,spoons,teaspoon,spoon_teaspoon_3_1.png,3,1,100,4484,17
borrowing_adult_artifacts,01/22/2026,01:27:20,3,typicality_rating,cups,teacup,cup_teacup_3_1.png,3,1,100,4355,17
borrowing_adult_artifacts,01/22/2026,01:27:20,4,typicality_rating,shells,spiral,shell_spiral_3_1.png,3,1,9,5725,17
borrowing_adult_artifacts,01/22/2026,01:27:20,5,typicality_rating,spoons,soup,spoon_soup_3_1.png,3,1,100,2863,17
borrowing_adult_artifacts,01/22/2026,01:27:20,6,typicality_rating,leaves,bean,leaf_bean_3_2.png,3,2,21,4607,17
borrowing_adult_artifacts,01/22/2026,01:27:20,7,typicality_rating,shoes,sneaker,shoe_sneaker_3_1.png,3,1,100,4457,17
borrowing_adult_artifacts,01/22/2026,01:27:20,8,typicality_rating,mushrooms,disc,mushroom_disc_3_2.png,3,2,87,3946,17
borrowing_adult_artifacts,01/22/2026,01:27:20,9,typicality_rating,hats,ballcap,hat_ballcap_3_1.png,3,1,78,5372,17
borrowing_adult_artifacts,01/22/2026,01:27:20,10,typicality_rating,shoes,ghillie,shoe_ghillie_3_2.png,3,2,27,4629,17
borrowing_adult_artifacts,01/22/2026,01:27:20,11,typicality_rating,mushrooms,enoki,mushroom_enoki_3_1.png,3,1,67,3450,17
borrowing_adult_artifacts,01/22/2026,01:27:20,12,typicality_rating,flowers,trumpet,flower_trumpet_3_2.png,3,2,48,3260,17
borrowing_adult_artifacts,01/22/2026,01:27:20,13,typicality_rating,leaves,oak,leaf_oak_3_1.png,3,1,100,6175,17
borrowing_adult_artifacts,01/22/2026,01:27:20,14,typicality_rating,shells,stingray,shell_stingray_3_2.png,3,2,56,4579,17
borrowing_adult_artifacts,01/22/2026,01:27:20,15,typicality_rating,cups,glass,cup_glass_3_1.png,3,1,100,3977,17
borrowing_adult_artifacts,01/22/2026,01:27:20,16,typicality_rating,broccoli,broccoli,broccoli_broccoli_6_0.png,6,0,100,2437,17
borrowing_adult_artifacts,01/22/2026,01:27:20,17,typicality_rating,flowers,star,flower_star_3_1.png,3,1,81,4301,17
borrowing_adult_artifacts,01/22/2026,01:27:20,18,typicality_rating,strawberries,strawberry,strawberry_strawberry_5_0.png,5,0,100,3074,17
borrowing_adult_artifacts,01/22/2026,01:27:20,19,typicality_rating,carrots,carrot,carrot_carrot_6_0.png,6,0,100,3775,17
borrowing_adult_artifacts,01/22/2026,01:27:20,20,typicality_rating,strawberries,strawberry,strawberry_strawberry_6_0.png,6,0,100,3112,17
borrowing_adult_artifacts,01/22/2026,01:27:20,21,typicality_rating,cups,twohandled,cup_twohandled_3_2.png,3,2,0,7435,17
borrowing_adult_artifacts,01/22/2026,01:27:20,22,typicality_rating,cups,sherry,cup_sherry_3_2.png,3,2,39,3756,17
borrowing_adult_artifacts,01/22/2026,01:27:20,23,typicality_rating,apples,apple,apple_apple_5_0.png,5,0,0,6528,17
borrowing_adult_artifacts,01/22/2026,01:27:20,24,typicality_rating,spoons,square,spoon_square_3_2.png,3,2,17,5074,17
borrowing_adult_artifacts,01/22/2026,01:27:20,25,typicality_rating,shoes,loafer,shoe_loafer_3_1.png,3,1,51,4959,17
borrowing_adult_artifacts,01/22/2026,01:27:20,26,typicality_rating,hats,sun,hat_sun_3_1.png,3,1,84,2475,17
borrowing_adult_artifacts,01/22/2026,01:27:20,27,typicality_rating,shoes,elf,shoe_elf_3_2.png,3,2,0,2855,17
borrowing_adult_artifacts,01/22/2026,01:27:20,28,typicality_rating,mushrooms,toadstool,mushroom_toadstool_3_1.png,3,1,100,3438,17
borrowing_adult_artifacts,01/22/2026,01:27:20,29,typicality_rating,flowers,round,flower_round_3_1.png,3,1,100,2330,17
borrowing_adult_artifacts,01/22/2026,01:27:20,30,typicality_rating,spoons,slotted,spoon_slotted_3_2.png,3,2,0,2668,17
borrowing_adult_artifacts,01/22/2026,01:27:20,31,typicality_rating,hats,party,hat_party_3_2.png,3,2,62,4959,17
borrowing_adult_artifacts,01/22/2026,01:27:20,32,typicality_rating,apples,apple,apple_apple_6_0.png,6,0,30,4950,17
borrowing_adult_artifacts,01/22/2026,01:27:20,33,typicality_rating,flowers,iris,flower_iris_3_2.png,3,2,5,4226,17
borrowing_adult_artifacts,01/22/2026,01:27:20,34,typicality_rating,broccoli,broccoli,broccoli_broccoli_5_0.png,5,0,100,4562,17
borrowing_adult_artifacts,01/22/2026,01:27:20,35,typicality_rating,mushrooms,bell,mushroom_bell_3_2.png,3,2,49,4820,17
borrowing_adult_artifacts,01/22/2026,01:27:20,36,typicality_rating,carrots,carrot,carrot_carrot_5_0.png,5,0,100,3347,17
borrowing_adult_artifacts,01/22/2026,01:27:20,37,typicality_rating,leaves,heart,leaf_heart_3_2.png,3,2,24,4520,17
borrowing_adult_artifacts,01/22/2026,01:27:20,38,typicality_rating,shells,fan,shell_fan_3_1.png,3,1,100,3453,17
borrowing_adult_artifacts,01/22/2026,01:27:20,39,typicality_rating,shells,urn,shell_urn_3_2.png,3,2,52,3530,17
borrowing_adult_artifacts,01/21/2026,20:15:32,0,typicality_rating,shells,urn,shell_urn_3_2.png,3,2,50,10164,31
borrowing_adult_artifacts,01/21/2026,20:15:32,1,typicality_rating,flowers,trumpet,flower_trumpet_3_2.png,3,2,12,8893,31
borrowing_adult_artifacts,01/21/2026,20:15:32,2,typicality_rating,hats,jester,hat_jester_3_2.png,3,2,24,6663,31
borrowing_adult_artifacts,01/21/2026,20:15:32,3,typicality_rating,broccoli,broccoli,broccoli_broccoli_6_0.png,6,0,100,3881,31
borrowing_adult_artifacts,01/21/2026,20:15:32,4,typicality_rating,hats,party,hat_party_3_2.png,3,2,24,8096,31
borrowing_adult_artifacts,01/21/2026,20:15:32,5,typicality_rating,mushrooms,bell,mushroom_bell_3_2.png,3,2,50,5412,31
borrowing_adult_artifacts,01/21/2026,20:15:32,6,typicality_rating,shells,spiral,shell_spiral_3_1.png,3,1,73,7680,31
borrowing_adult_artifacts,01/21/2026,20:15:32,7,typicality_rating,flowers,iris,flower_iris_3_2.png,3,2,14,6829,31
borrowing_adult_artifacts,01/21/2026,20:15:32,8,typicality_rating,apples,apple,apple_apple_5_0.png,5,0,51,7163,31
borrowing_adult_artifacts,01/21/2026,20:15:32,9,typicality_rating,cups,twohandled,cup_twohandled_3_2.png,3,2,27,7562,31
borrowing_adult_artifacts,01/21/2026,20:15:32,10,typicality_rating,hats,sun,hat_sun_3_1.png,3,1,63,7814,31
borrowing_adult_artifacts,01/21/2026,20:15:32,11,typicality_rating,apples,apple,apple_apple_6_0.png,6,0,73,5747,31
borrowing_adult_artifacts,01/21/2026,20:15:32,12,typicality_rating,shoes,ghillie,shoe_ghillie_3_2.png,3,2,22,4483,31
borrowing_adult_artifacts,01/21/2026,20:15:32,13,typicality_rating,shoes,sneaker,shoe_sneaker_3_1.png,3,1,100,3293,31
borrowing_adult_artifacts,01/21/2026,20:15:32,14,typicality_rating,cups,teacup,cup_teacup_3_1.png,3,1,100,3763,31
borrowing_adult_artifacts,01/21/2026,20:15:32,15,typicality_rating,spoons,teaspoon,spoon_teaspoon_3_1.png,3,1,100,3596,31
borrowing_adult_artifacts,01/21/2026,20:15:32,16,typicality_rating,mushrooms,enoki,mushroom_enoki_3_1.png,3,1,9,5464,31
borrowing_adult_artifacts,01/21/2026,20:15:32,17,typicality_rating,shells,fan,shell_fan_3_1.png,3,1,53,5114,31
borrowing_adult_artifacts,01/21/2026,20:15:32,18,typicality_rating,carrots,carrot,carrot_carrot_6_0.png,6,0,52,7963,31
borrowing_adult_artifacts,01/21/2026,20:15:32,19,typicality_rating,flowers,round,flower_round_3_1.png,3,1,100,3230,31
borrowing_adult_artifacts,01/21/2026,20:15:32,20,typicality_rating,spoons,slotted,spoon_slotted_3_2.png,3,2,23,5413,31
borrowing_adult_artifacts,01/21/2026,20:15:32,21,typicality_rating,shoes,loafer,shoe_loafer_3_1.png,3,1,100,3414,31
borrowing_adult_artifacts,01/21/2026,20:15:32,22,typicality_rating,strawberries,strawberry,strawberry_strawberry_5_0.png,5,0,45,3347,31
borrowing_adult_artifacts,01/21/2026,20:15:32,23,typicality_rating,shells,stingray,shell_stingray_3_2.png,3,2,28,6266,31
borrowing_adult_artifacts,01/21/2026,20:15:32,24,typicality_rating,hats,ballcap,hat_ballcap_3_1.png,3,1,100,4211,31
borrowing_adult_artifacts,01/21/2026,20:15:32,25,typicality_rating,spoons,soup,spoon_soup_3_1.png,3,1,45,4380,31
borrowing_adult_artifacts,01/21/2026,20:15:32,26,typicality_rating,leaves,heart,leaf_heart_3_2.png,3,2,13,5364,31
borrowing_adult_artifacts,01/21/2026,20:15:32,27,typicality_rating,leaves,oak,leaf_oak_3_1.png,3,1,31,5730,31
borrowing_adult_artifacts,01/21/2026,20:15:32,28,typicality_rating,flowers,star,flower_star_3_1.png,3,1,83,5314,31
borrowing_adult_artifacts,01/21/2026,20:15:32,29,typicality_rating,cups,glass,cup_glass_3_1.png,3,1,15,6080,31
borrowing_adult_artifacts,01/21/2026,20:15:32,30,typicality_rating,leaves,bean,leaf_bean_3_2.png,3,2,0,16147,31
borrowing_adult_artifacts,01/21/2026,20:15:32,31,typicality_rating,leaves,droplet,leaf_droplet_3_1.png,3,1,50,4581,31
borrowing_adult_artifacts,01/21/2026,20:15:32,32,typicality_rating,mushrooms,toadstool,mushroom_toadstool_3_1.png,3,1,52,5064,31
borrowing_adult_artifacts,01/21/2026,20:15:32,33,typicality_rating,broccoli,broccoli,broccoli_broccoli_5_0.png,5,0,100,3414,31
borrowing_adult_artifacts,01/21/2026,20:15:32,34,typicality_rating,spoons,square,spoon_square_3_2.png,3,2,0,3481,31
borrowing_adult_artifacts,01/21/2026,20:15:32,35,typicality_rating,mushrooms,disc,mushroom_disc_3_2.png,3,2,0,6963,31
borrowing_adult_artifacts,01/21/2026,20:15:32,36,typicality_rating,strawberries,strawberry,strawberry_strawberry_6_0.png,6,0,100,2997,31
borrowing_adult_artifacts,01/21/2026,20:15:32,37,typicality_rating,cups,sherry,cup_sherry_3_2.png,3,2,12,7150,31
borrowing_adult_artifacts,01/21/2026,20:15:32,38,typicality_rating,shoes,elf,shoe_elf_3_2.png,3,2,2,6143,31
borrowing_adult_artifacts,01/21/2026,20:15:32,39,typicality_rating,carrots,carrot,carrot_carrot_5_0.png,5,0,50,5580,31
borrowing_adult_artifacts,01/21/2026,19:15:38,0,typicality_rating,shoes,elf,shoe_elf_2_2.png,2,2,0,7288,7
borrowing_adult_artifacts,01/21/2026,19:15:38,1,typicality_rating,strawberries,strawberry,strawberry_strawberry_3_0.png,3,0,100,6147,7
borrowing_adult_artifacts,01/21/2026,19:15:38,2,typicality_rating,spoons,square,spoon_square_2_2.png,2,2,50,8932,7
borrowing_adult_artifacts,01/21/2026,19:15:38,3,typicality_rating,hats,ballcap,hat_ballcap_2_1.png,2,1,100,5260,7
borrowing_adult_artifacts,01/21/2026,19:15:38,4,typicality_rating,carrots,carrot,carrot_carrot_4_0.png,4,0,73,9292,7
borrowing_adult_artifacts,01/21/2026,19:15:38,5,typicality_rating,leaves,heart,leaf_heart_2_2.png,2,2,0,9875,7
borrowing_adult_artifacts,01/21/2026,19:15:38,6,typicality_rating,apples,apple,apple_apple_4_0.png,4,0,100,3412,7
borrowing_adult_artifacts,01/21/2026,19:15:38,7,typicality_rating,mushrooms,bell,mushroom_bell_2_2.png,2,2,50,5796,7
borrowing_adult_artifacts,01/21/2026,19:15:38,8,typicality_rating,spoons,slotted,spoon_slotted_2_2.png,2,2,74,6868,7
borrowing_adult_artifacts,01/21/2026,19:15:38,9,typicality_rating,hats,sun,hat_sun_2_1.png,2,1,78,5804,7
borrowing_adult_artifacts,01/21/2026,19:15:38,10,typicality_rating,mushrooms,toadstool,mushroom_toadstool_2_1.png,2,1,78,7588,7
borrowing_adult_artifacts,01/21/2026,19:15:38,11,typicality_rating,shells,fan,shell_fan_2_1.png,2,1,0,4260,7
borrowing_adult_artifacts,01/21/2026,19:15:38,12,typicality_rating,carrots,carrot,carrot_carrot_3_0.png,3,0,85,4659,7
borrowing_adult_artifacts,01/21/2026,19:15:38,13,typicality_rating,spoons,soup,spoon_soup_2_1.png,2,1,100,4156,7
borrowing_adult_artifacts,01/21/2026,19:15:38,14,typicality_rating,shells,stingray,shell_stingray_2_2.png,2,2,18,8300,7
borrowing_adult_artifacts,01/21/2026,19:15:38,15,typicality_rating,mushrooms,disc,mushroom_disc_2_2.png,2,2,22,3652,7
borrowing_adult_artifacts,01/21/2026,19:15:38,16,typicality_rating,flowers,trumpet,flower_trumpet_2_2.png,2,2,52,6964,7
borrowing_adult_artifacts,01/21/2026,19:15:38,17,typicality_rating,flowers,round,flower_round_2_1.png,2,1,80,3892,7
borrowing_adult_artifacts,01/21/2026,19:15:38,18,typicality_rating,broccoli,broccoli,broccoli_broccoli_4_0.png,4,0,100,5028,7
borrowing_adult_artifacts,01/21/2026,19:15:38,19,typicality_rating,mushrooms,enoki,mushroom_enoki_2_1.png,2,1,0,5404,7
borrowing_adult_artifacts,01/21/2026,19:15:38,20,typicality_rating,cups,glass,cup_glass_2_1.png,2,1,100,6436,7
borrowing_adult_artifacts,01/21/2026,19:15:38,21,typicality_rating,shells,spiral,shell_spiral_2_1.png,2,1,15,4763,7
borrowing_adult_artifacts,01/21/2026,19:15:38,22,typicality_rating,leaves,droplet,leaf_droplet_2_1.png,2,1,100,4604,7
borrowing_adult_artifacts,01/21/2026,19:15:38,23,typicality_rating,strawberries,strawberry,strawberry_strawberry_4_0.png,4,0,100,3876,7
borrowing_adult_artifacts,01/21/2026,19:15:38,24,typicality_rating,leaves,oak,leaf_oak_2_1.png,2,1,100,3924,7
borrowing_adult_artifacts,01/21/2026,19:15:38,25,typicality_rating,shoes,ghillie,shoe_ghillie_2_2.png,2,2,76,4469,7
borrowing_adult_artifacts,01/21/2026,19:15:38,26,typicality_rating,cups,teacup,cup_teacup_2_1.png,2,1,100,3220,7
borrowing_adult_artifacts,01/21/2026,19:15:38,27,typicality_rating,flowers,star,flower_star_2_1.png,2,1,30,3956,7
borrowing_adult_artifacts,01/21/2026,19:15:38,28,typicality_rating,shells,urn,shell_urn_2_2.png,2,2,23,4420,7
borrowing_adult_artifacts,01/21/2026,19:15:38,29,typicality_rating,spoons,teaspoon,spoon_teaspoon_2_1.png,2,1,100,3876,7
borrowing_adult_artifacts,01/21/2026,19:15:38,30,typicality_rating,broccoli,broccoli,broccoli_broccoli_3_0.png,3,0,100,3276,7
borrowing_adult_artifacts,01/21/2026,19:15:38,31,typicality_rating,cups,sherry,cup_sherry_2_2.png,2,2,0,7660,7
borrowing_adult_artifacts,01/21/2026,19:15:38,32,typicality_rating,hats,jester,hat_jester_2_2.png,2,2,0,3524,7
borrowing_adult_artifacts,01/21/2026,19:15:38,33,typicality_rating,shoes,loafer,shoe_loafer_2_1.png,2,1,27,5748,7
borrowing_adult_artifacts,01/21/2026,19:15:38,34,typicality_rating,shoes,sneaker,shoe_sneaker_2_1.png,2,1,72,3716,7
borrowing_adult_artifacts,01/21/2026,19:15:38,35,typicality_rating,leaves,bean,leaf_bean_2_2.png,2,2,0,4444,7
borrowing_adult_artifacts,01/21/2026,19:15:38,36,typicality_rating,hats,party,hat_party_2_2.png,2,2,0,4228,7
borrowing_adult_artifacts,01/21/2026,19:15:38,37,typicality_rating,flowers,iris,flower_iris_2_2.png,2,2,0,3308,7
borrowing_adult_artifacts,01/21/2026,19:15:38,38,typicality_rating,cups,twohandled,cup_twohandled_2_2.png,2,2,0,5468,7
borrowing_adult_artifacts,01/21/2026,19:15:38,39,typicality_rating,apples,apple,apple_apple_3_0.png,3,0,100,3541,7
borrowing_adult_artifacts,01/21/2026,19:18:53,0,typicality_rating,flowers,round,flower_round_3_1.png,3,1,66,6971,29
borrowing_adult_artifacts,01/21/2026,19:18:53,1,typicality_rating,shells,fan,shell_fan_3_1.png,3,1,95,2847,29
borrowing_adult_artifacts,01/21/2026,19:18:53,2,typicality_rating,spoons,slotted,spoon_slotted_3_2.png,3,2,45,3572,29
borrowing_adult_artifacts,01/21/2026,19:18:53,3,typicality_rating,leaves,bean,leaf_bean_3_2.png,3,2,7,4240,29
borrowing_adult_artifacts,01/21/2026,19:18:53,4,typicality_rating,hats,ballcap,hat_ballcap_3_1.png,3,1,96,2550,29
borrowing_adult_artifacts,01/21/2026,19:18:53,5,typicality_rating,spoons,soup,spoon_soup_3_1.png,3,1,99,2316,29
borrowing_adult_artifacts,01/21/2026,19:18:53,6,typicality_rating,leaves,heart,leaf_heart_3_2.png,3,2,44,2485,29
borrowing_adult_artifacts,01/21/2026,19:18:53,7,typicality_rating,flowers,trumpet,flower_trumpet_3_2.png,3,2,64,3227,29
borrowing_adult_artifacts,01/21/2026,19:18:53,8,typicality_rating,leaves,droplet,leaf_droplet_3_1.png,3,1,83,2424,29
borrowing_adult_artifacts,01/21/2026,19:18:53,9,typicality_rating,broccoli,broccoli,broccoli_broccoli_6_0.png,6,0,99,2270,29
borrowing_adult_artifacts,01/21/2026,19:18:53,10,typicality_rating,cups,glass,cup_glass_3_1.png,3,1,69,3070,29
borrowing_adult_artifacts,01/21/2026,19:18:53,11,typicality_rating,shoes,sneaker,shoe_sneaker_3_1.png,3,1,100,2265,29
borrowing_adult_artifacts,01/21/2026,19:18:53,12,typicality_rating,spoons,square,spoon_square_3_2.png,3,2,16,3540,29
borrowing_adult_artifacts,01/21/2026,19:18:53,13,typicality_rating,hats,sun,hat_sun_3_1.png,3,1,32,2886,29
borrowing_adult_artifacts,01/21/2026,19:18:53,14,typicality_rating,apples,apple,apple_apple_5_0.png,5,0,99,2635,29
borrowing_adult_artifacts,01/21/2026,19:18:53,15,typicality_rating,flowers,iris,flower_iris_3_2.png,3,2,20,3417,29
borrowing_adult_artifacts,01/21/2026,19:18:53,16,typicality_rating,hats,party,hat_party_3_2.png,3,2,17,2551,29
borrowing_adult_artifacts,01/21/2026,19:18:53,17,typicality_rating,cups,twohandled,cup_twohandled_3_2.png,3,2,41,4177,29
borrowing_adult_artifacts,01/21/2026,19:18:53,18,typicality_rating,mushrooms,disc,mushroom_disc_3_2.png,3,2,22,3096,29
borrowing_adult_artifacts,01/21/2026,19:18:53,19,typicality_rating,carrots,carrot,carrot_carrot_6_0.png,6,0,99,2649,29
borrowing_adult_artifacts,01/21/2026,19:18:53,20,typicality_rating,shells,urn,shell_urn_3_2.png,3,2,44,3197,29
borrowing_adult_artifacts,01/21/2026,19:18:53,21,typicality_rating,shoes,loafer,shoe_loafer_3_1.png,3,1,67,3513,29
borrowing_adult_artifacts,01/21/2026,19:18:53,22,typicality_rating,shells,stingray,shell_stingray_3_2.png,3,2,42,2909,29
borrowing_adult_artifacts,01/21/2026,19:18:53,23,typicality_rating,mushrooms,enoki,mushroom_enoki_3_1.png,3,1,32,2715,29
borrowing_adult_artifacts,01/21/2026,19:18:53,24,typicality_rating,mushrooms,bell,mushroom_bell_3_2.png,3,2,75,2621,29
borrowing_adult_artifacts,01/21/2026,19:18:53,25,typicality_rating,strawberries,strawberry,strawberry_strawberry_6_0.png,6,0,99,2139,29
borrowing_adult_artifacts,01/21/2026,19:18:53,26,typicality_rating,cups,teacup,cup_teacup_3_1.png,3,1,100,2433,29
borrowing_adult_artifacts,01/21/2026,19:18:53,27,typicality_rating,apples,apple,apple_apple_6_0.png,6,0,100,3062,29
borrowing_adult_artifacts,01/21/2026,19:18:53,28,typicality_rating,leaves,oak,leaf_oak_3_1.png,3,1,77,2635,29
borrowing_adult_artifacts,01/21/2026,19:18:53,29,typicality_rating,shoes,elf,shoe_elf_3_2.png,3,2,15,2899,29
borrowing_adult_artifacts,01/21/2026,19:18:53,30,typicality_rating,broccoli,broccoli,broccoli_broccoli_5_0.png,5,0,100,2213,29
borrowing_adult_artifacts,01/21/2026,19:18:53,31,typicality_rating,hats,jester,hat_jester_3_2.png,3,2,7,2203,29
borrowing_adult_artifacts,01/21/2026,19:18:53,32,typicality_rating,cups,sherry,cup_sherry_3_2.png,3,2,24,2615,29
borrowing_adult_artifacts,01/21/2026,19:18:53,33,typicality_rating,carrots,carrot,carrot_carrot_5_0.png,5,0,99,2185,29
borrowing_adult_artifacts,01/21/2026,19:18:53,34,typicality_rating,spoons,teaspoon,spoon_teaspoon_3_1.png,3,1,97,3143,29
borrowing_adult_artifacts,01/21/2026,19:18:53,35,typicality_rating,mushrooms,toadstool,mushroom_toadstool_3_1.png,3,1,87,2342,29
borrowing_adult_artifacts,01/21/2026,19:18:53,36,typicality_rating,shells,spiral,shell_spiral_3_1.png,3,1,42,3457,29
borrowing_adult_artifacts,01/21/2026,19:18:53,37,typicality_rating,strawberries,strawberry,strawberry_strawberry_5_0.png,5,0,92,3047,29
borrowing_adult_artifacts,01/21/2026,19:18:53,38,typicality_rating,shoes,ghillie,shoe_ghillie_3_2.png,3,2,69,2554,29
borrowing_adult_artifacts,01/21/2026,19:18:53,39,typicality_rating,flowers,star,flower_star_3_1.png,3,1,36,2181,29
borrowing_adult_artifacts,01/22/2026,01:41:39,0,typicality_rating,spoons,soup,spoon_soup_1_1.png,1,1,54,16103,4
borrowing_adult_artifacts,01/22/2026,01:41:39,1,typicality_rating,shoes,ghillie,shoe_ghillie_1_2.png,1,2,82,5643,4
borrowing_adult_artifacts,01/22/2026,01:41:39,2,typicality_rating,leaves,droplet,leaf_droplet_1_1.png,1,1,58,9445,4
borrowing_adult_artifacts,01/22/2026,01:41:39,3,typicality_rating,flowers,trumpet,flower_trumpet_1_2.png,1,2,54,12329,4
borrowing_adult_artifacts,01/22/2026,01:41:39,4,typicality_rating,mushrooms,toadstool,mushroom_toadstool_1_1.png,1,1,65,3483,4
borrowing_adult_artifacts,01/22/2026,01:41:39,5,typicality_rating,flowers,iris,flower_iris_1_2.png,1,2,19,5944,4
borrowing_adult_artifacts,01/22/2026,01:41:39,6,typicality_rating,shells,stingray,shell_stingray_1_2.png,1,2,63,5059,4
borrowing_adult_artifacts,01/22/2026,01:41:39,7,typicality_rating,leaves,heart,leaf_heart_1_2.png,1,2,35,5864,4
borrowing_adult_artifacts,01/22/2026,01:41:39,8,typicality_rating,carrots,carrot,carrot_carrot_2_0.png,2,0,91,4354,4
borrowing_adult_artifacts,01/22/2026,01:41:39,9,typicality_rating,spoons,square,spoon_square_1_2.png,1,2,12,7060,4
borrowing_adult_artifacts,01/22/2026,01:41:39,10,typicality_rating,spoons,slotted,spoon_slotted_1_2.png,1,2,2,8493,4
borrowing_adult_artifacts,01/22/2026,01:41:39,11,typicality_rating,shoes,loafer,shoe_loafer_1_1.png,1,1,24,9077,4
borrowing_adult_artifacts,01/22/2026,01:41:39,12,typicality_rating,mushrooms,disc,mushroom_disc_1_2.png,1,2,19,3140,4
borrowing_adult_artifacts,01/22/2026,01:41:39,13,typicality_rating,carrots,carrot,carrot_carrot_1_0.png,1,0,96,4973,4
borrowing_adult_artifacts,01/22/2026,01:41:39,14,typicality_rating,shoes,sneaker,shoe_sneaker_1_1.png,1,1,95,5084,4
borrowing_adult_artifacts,01/22/2026,01:41:39,15,typicality_rating,strawberries,strawberry,strawberry_strawberry_2_0.png,2,0,19,9975,4
borrowing_adult_artifacts,01/22/2026,01:41:39,16,typicality_rating,leaves,oak,leaf_oak_1_1.png,1,1,25,5474,4
borrowing_adult_artifacts,01/22/2026,01:41:39,17,typicality_rating,shells,spiral,shell_spiral_1_1.png,1,1,68,4244,4
borrowing_adult_artifacts,01/22/2026,01:41:39,18,typicality_rating,cups,sherry,cup_sherry_1_2.png,1,2,18,6992,4
borrowing_adult_artifacts,01/22/2026,01:41:39,19,typicality_rating,shells,fan,shell_fan_1_1.png,1,1,78,5806,4
borrowing_adult_artifacts,01/22/2026,01:41:39,20,typicality_rating,cups,glass,cup_glass_1_1.png,1,1,86,5721,4
borrowing_adult_artifacts,01/22/2026,01:41:39,21,typicality_rating,hats,jester,hat_jester_1_2.png,1,2,61,7928,4
borrowing_adult_artifacts,01/22/2026,01:41:39,22,typicality_rating,broccoli,broccoli,broccoli_broccoli_1_0.png,1,0,91,4735,4
borrowing_adult_artifacts,01/22/2026,01:41:39,23,typicality_rating,shoes,elf,shoe_elf_1_2.png,1,2,11,4154,4
borrowing_adult_artifacts,01/22/2026,01:41:39,24,typicality_rating,shells,urn,shell_urn_1_2.png,1,2,50,4678,4
borrowing_adult_artifacts,01/22/2026,01:41:39,25,typicality_rating,cups,twohandled,cup_twohandled_1_2.png,1,2,28,7153,4
borrowing_adult_artifacts,01/22/2026,01:41:39,26,typicality_rating,broccoli,broccoli,broccoli_broccoli_2_0.png,2,0,94,3434,4
borrowing_adult_artifacts,01/22/2026,01:41:39,27,typicality_rating,mushrooms,bell,mushroom_bell_1_2.png,1,2,24,4777,4
borrowing_adult_artifacts,01/22/2026,01:41:39,28,typicality_rating,flowers,round,flower_round_1_1.png,1,1,72,5299,4
borrowing_adult_artifacts,01/22/2026,01:41:39,29,typicality_rating,apples,apple,apple_apple_2_0.png,2,0,68,5456,4
borrowing_adult_artifacts,01/22/2026,01:41:39,30,typicality_rating,hats,party,hat_party_1_2.png,1,2,59,4776,4
borrowing_adult_artifacts,01/22/2026,01:41:39,31,typicality_rating,hats,sun,hat_sun_1_1.png,1,1,89,3386,4
borrowing_adult_artifacts,01/22/2026,01:41:39,32,typicality_rating,mushrooms,enoki,mushroom_enoki_1_1.png,1,1,13,5987,4
borrowing_adult_artifacts,01/22/2026,01:41:39,33,typicality_rating,apples,apple,apple_apple_1_0.png,1,0,57,5170,4
borrowing_adult_artifacts,01/22/2026,01:41:39,34,typicality_rating,cups,teacup,cup_teacup_1_1.png,1,1,99,3635,4
borrowing_adult_artifacts,01/22/2026,01:41:39,35,typicality_rating,flowers,star,flower_star_1_1.png,1,1,41,8959,4
borrowing_adult_artifacts,01/22/2026,01:41:39,36,typicality_rating,hats,ballcap,hat_ballcap_1_1.png,1,1,97,3286,4
borrowing_adult_artifacts,01/22/2026,01:41:39,37,typicality_rating,leaves,bean,leaf_bean_1_2.png,1,2,11,6237,4
borrowing_adult_artifacts,01/22/2026,01:41:39,38,typicality_rating,spoons,teaspoon,spoon_teaspoon_1_1.png,1,1,98,5425,4
borrowing_adult_artifacts,01/22/2026,01:41:39,39,typicality_rating,strawberries,strawberry,strawberry_strawberry_1_0.png,1,0,93,7483,4
borrowing_adult_artifacts,01/21/2026,17:37:00,0,typicality_rating,leaves,heart,leaf_heart_1_2.png,1,2,20,7975,20
borrowing_adult_artifacts,01/21/2026,17:37:00,1,typicality_rating,shoes,ghillie,shoe_ghillie_1_2.png,1,2,93,5203,20
borrowing_adult_artifacts,01/21/2026,17:37:00,2,typicality_rating,cups,teacup,cup_teacup_1_1.png,1,1,100,4748,20
borrowing_adult_artifacts,01/21/2026,17:37:00,3,typicality_rating,flowers,trumpet,flower_trumpet_1_2.png,1,2,29,4819,20
borrowing_adult_artifacts,01/21/2026,17:37:00,4,typicality_rating,hats,sun,hat_sun_1_1.png,1,1,83,4241,20
borrowing_adult_artifacts,01/21/2026,17:37:00,5,typicality_rating,leaves,droplet,leaf_droplet_1_1.png,1,1,81,4346,20
borrowing_adult_artifacts,01/21/2026,17:37:00,6,typicality_rating,carrots,carrot,carrot_carrot_2_0.png,2,0,100,3295,20
borrowing_adult_artifacts,01/21/2026,17:37:00,7,typicality_rating,leaves,oak,leaf_oak_1_1.png,1,1,45,4805,20
borrowing_adult_artifacts,01/21/2026,17:37:00,8,typicality_rating,shells,urn,shell_urn_1_2.png,1,2,11,4098,20
borrowing_adult_artifacts,01/21/2026,17:37:00,9,typicality_rating,mushrooms,disc,mushroom_disc_1_2.png,1,2,77,3275,20
borrowing_adult_artifacts,01/21/2026,17:37:00,10,typicality_rating,mushrooms,enoki,mushroom_enoki_1_1.png,1,1,65,3310,20
borrowing_adult_artifacts,01/21/2026,17:37:00,11,typicality_rating,flowers,round,flower_round_1_1.png,1,1,95,3319,20
borrowing_adult_artifacts,01/21/2026,17:37:00,12,typicality_rating,spoons,soup,spoon_soup_1_1.png,1,1,72,9714,20
borrowing_adult_artifacts,01/21/2026,17:37:00,13,typicality_rating,shoes,elf,shoe_elf_1_2.png,1,2,29,6629,20
borrowing_adult_artifacts,01/21/2026,17:37:00,14,typicality_rating,flowers,iris,flower_iris_1_2.png,1,2,34,3168,20
borrowing_adult_artifacts,01/21/2026,17:37:00,15,typicality_rating,broccoli,broccoli,broccoli_broccoli_2_0.png,2,0,71,7975,20
borrowing_adult_artifacts,01/21/2026,17:37:00,16,typicality_rating,mushrooms,toadstool,mushroom_toadstool_1_1.png,1,1,86,4368,20
borrowing_adult_artifacts,01/21/2026,17:37:00,17,typicality_rating,shells,stingray,shell_stingray_1_2.png,1,2,12,4498,20
borrowing_adult_artifacts,01/21/2026,17:37:00,18,typicality_rating,cups,glass,cup_glass_1_1.png,1,1,65,5319,20
borrowing_adult_artifacts,01/21/2026,17:37:00,19,typicality_rating,strawberries,strawberry,strawberry_strawberry_2_0.png,2,0,92,2818,20
borrowing_adult_artifacts,01/21/2026,17:37:00,20,typicality_rating,apples,apple,apple_apple_2_0.png,2,0,85,3931,20
borrowing_adult_artifacts,01/21/2026,17:37:00,21,typicality_rating,shoes,loafer,shoe_loafer_1_1.png,1,1,88,2692,20
borrowing_adult_artifacts,01/21/2026,17:37:00,22,typicality_rating,hats,party,hat_party_1_2.png,1,2,31,4969,20
borrowing_adult_artifacts,01/21/2026,17:37:00,23,typicality_rating,flowers,star,flower_star_1_1.png,1,1,81,4520,20
borrowing_adult_artifacts,01/21/2026,17:37:00,24,typicality_rating,mushrooms,bell,mushroom_bell_1_2.png,1,2,44,4429,20
borrowing_adult_artifacts,01/21/2026,17:37:00,25,typicality_rating,strawberries,strawberry,strawberry_strawberry_1_0.png,1,0,93,2842,20
borrowing_adult_artifacts,01/21/2026,17:37:00,26,typicality_rating,spoons,teaspoon,spoon_teaspoon_1_1.png,1,1,94,4203,20
borrowing_adult_artifacts,01/21/2026,17:37:00,27,typicality_rating,spoons,square,spoon_square_1_2.png,1,2,27,3504,20
borrowing_adult_artifacts,01/21/2026,17:37:00,28,typicality_rating,broccoli,broccoli,broccoli_broccoli_1_0.png,1,0,80,2527,20
borrowing_adult_artifacts,01/21/2026,17:37:00,29,typicality_rating,leaves,bean,leaf_bean_1_2.png,1,2,1,3434,20
borrowing_adult_artifacts,01/21/2026,17:37:00,30,typicality_rating,apples,apple,apple_apple_1_0.png,1,0,47,3287,20
borrowing_adult_artifacts,01/21/2026,17:37:00,31,typicality_rating,shells,fan,shell_fan_1_1.png,1,1,4,4029,20
borrowing_adult_artifacts,01/21/2026,17:37:00,32,typicality_rating,cups,sherry,cup_sherry_1_2.png,1,2,26,4761,20
borrowing_adult_artifacts,01/21/2026,17:37:00,33,typicality_rating,hats,ballcap,hat_ballcap_1_1.png,1,1,98,2809,20
borrowing_adult_artifacts,01/21/2026,17:37:00,34,typicality_rating,shoes,sneaker,shoe_sneaker_1_1.png,1,1,97,2893,20
borrowing_adult_artifacts,01/21/2026,17:37:00,35,typicality_rating,hats,jester,hat_jester_1_2.png,1,2,0,3063,20
borrowing_adult_artifacts,01/21/2026,17:37:00,36,typicality_rating,spoons,slotted,spoon_slotted_1_2.png,1,2,86,2870,20
borrowing_adult_artifacts,01/21/2026,17:37:00,37,typicality_rating,shells,spiral,shell_spiral_1_1.png,1,1,28,7198,20
borrowing_adult_artifacts,01/21/2026,17:37:00,38,typicality_rating,carrots,carrot,carrot_carrot_1_0.png,1,0,95,3303,20
borrowing_adult_artifacts,01/21/2026,17:37:00,39,typicality_rating,cups,twohandled,cup_twohandled_1_2.png,1,2,68,11815,20
borrowing_adult_artifacts,01/21/2026,20:17:11,0,typicality_rating,apples,apple,apple_apple_6_0.png,6,0,83,17365,23
borrowing_adult_artifacts,01/21/2026,20:17:11,1,typicality_rating,flowers,iris,flower_iris_3_2.png,3,2,70,6072,23
borrowing_adult_artifacts,01/21/2026,20:17:11,2,typicality_rating,spoons,teaspoon,spoon_teaspoon_3_1.png,3,1,86,6177,23
borrowing_adult_artifacts,01/21/2026,20:17:11,3,typicality_rating,flowers,star,flower_star_3_1.png,3,1,70,11252,23
borrowing_adult_artifacts,01/21/2026,20:17:11,4,typicality_rating,shells,spiral,shell_spiral_3_1.png,3,1,61,7195,23
borrowing_adult_artifacts,01/21/2026,20:17:11,5,typicality_rating,strawberries,strawberry,strawberry_strawberry_6_0.png,6,0,68,5563,23
borrowing_adult_artifacts,01/21/2026,20:17:11,6,typicality_rating,leaves,oak,leaf_oak_3_1.png,3,1,76,7230,23
borrowing_adult_artifacts,01/21/2026,20:17:11,7,typicality_rating,apples,apple,apple_apple_5_0.png,5,0,62,5133,23
borrowing_adult_artifacts,01/21/2026,20:17:11,8,typicality_rating,broccoli,broccoli,broccoli_broccoli_6_0.png,6,0,70,4355,23
borrowing_adult_artifacts,01/21/2026,20:17:11,9,typicality_rating,mushrooms,toadstool,mushroom_toadstool_3_1.png,3,1,75,3794,23
borrowing_adult_artifacts,01/21/2026,20:17:11,10,typicality_rating,carrots,carrot,carrot_carrot_5_0.png,5,0,96,5400,23
borrowing_adult_artifacts,01/21/2026,20:17:11,11,typicality_rating,cups,sherry,cup_sherry_3_2.png,3,2,54,10185,23
borrowing_adult_artifacts,01/21/2026,20:17:11,12,typicality_rating,flowers,trumpet,flower_trumpet_3_2.png,3,2,79,7263,23
borrowing_adult_artifacts,01/21/2026,20:17:11,13,typicality_rating,spoons,square,spoon_square_3_2.png,3,2,3,6547,23
borrowing_adult_artifacts,01/21/2026,20:17:11,14,typicality_rating,shoes,sneaker,shoe_sneaker_3_1.png,3,1,100,5714,23
borrowing_adult_artifacts,01/21/2026,20:17:11,15,typicality_rating,shells,fan,shell_fan_3_1.png,3,1,86,7387,23
borrowing_adult_artifacts,01/21/2026,20:17:11,16,typicality_rating,shoes,loafer,shoe_loafer_3_1.png,3,1,100,3983,23
borrowing_adult_artifacts,01/21/2026,20:17:11,17,typicality_rating,hats,ballcap,hat_ballcap_3_1.png,3,1,100,4381,23
borrowing_adult_artifacts,01/21/2026,20:17:11,18,typicality_rating,leaves,droplet,leaf_droplet_3_1.png,3,1,100,7036,23
borrowing_adult_artifacts,01/21/2026,20:17:11,19,typicality_rating,spoons,soup,spoon_soup_3_1.png,3,1,100,5591,23
borrowing_adult_artifacts,01/21/2026,20:17:11,20,typicality_rating,mushrooms,enoki,mushroom_enoki_3_1.png,3,1,92,5187,23
borrowing_adult_artifacts,01/21/2026,20:17:11,21,typicality_rating,shoes,elf,shoe_elf_3_2.png,3,2,85,9410,23
borrowing_adult_artifacts,01/21/2026,20:17:11,22,typicality_rating,hats,jester,hat_jester_3_2.png,3,2,97,5518,23
borrowing_adult_artifacts,01/21/2026,20:17:11,23,typicality_rating,flowers,round,flower_round_3_1.png,3,1,100,6096,23
borrowing_adult_artifacts,01/21/2026,20:17:11,24,typicality_rating,spoons,slotted,spoon_slotted_3_2.png,3,2,82,5584,23
borrowing_adult_artifacts,01/21/2026,20:17:11,25,typicality_rating,leaves,bean,leaf_bean_3_2.png,3,2,42,6342,23
borrowing_adult_artifacts,01/21/2026,20:17:11,26,typicality_rating,leaves,heart,leaf_heart_3_2.png,3,2,57,5474,23
borrowing_adult_artifacts,01/21/2026,20:17:11,27,typicality_rating,cups,teacup,cup_teacup_3_1.png,3,1,100,4296,23
borrowing_adult_artifacts,01/21/2026,20:17:11,28,typicality_rating,mushrooms,bell,mushroom_bell_3_2.png,3,2,89,6834,23
borrowing_adult_artifacts,01/21/2026,20:17:11,29,typicality_rating,cups,glass,cup_glass_3_1.png,3,1,75,7144,23
borrowing_adult_artifacts,01/21/2026,20:17:11,30,typicality_rating,shells,urn,shell_urn_3_2.png,3,2,90,6760,23
borrowing_adult_artifacts,01/21/2026,20:17:11,31,typicality_rating,carrots,carrot,carrot_carrot_6_0.png,6,0,100,3311,23
borrowing_adult_artifacts,01/21/2026,20:17:11,32,typicality_rating,shoes,ghillie,shoe_ghillie_3_2.png,3,2,71,7391,23
borrowing_adult_artifacts,01/21/2026,20:17:11,33,typicality_rating,shells,stingray,shell_stingray_3_2.png,3,2,36,5777,23
borrowing_adult_artifacts,01/21/2026,20:17:11,34,typicality_rating,hats,sun,hat_sun_3_1.png,3,1,100,3666,23
borrowing_adult_artifacts,01/21/2026,20:17:11,35,typicality_rating,hats,party,hat_party_3_2.png,3,2,100,3816,23
borrowing_adult_artifacts,01/21/2026,20:17:11,36,typicality_rating,mushrooms,disc,mushroom_disc_3_2.png,3,2,31,4013,23
borrowing_adult_artifacts,01/21/2026,20:17:11,37,typicality_rating,broccoli,broccoli,broccoli_broccoli_5_0.png,5,0,100,5136,23
borrowing_adult_artifacts,01/21/2026,20:17:11,38,typicality_rating,strawberries,strawberry,strawberry_strawberry_5_0.png,5,0,50,4278,23
borrowing_adult_artifacts,01/21/2026,20:17:11,39,typicality_rating,cups,twohandled,cup_twohandled_3_2.png,3,2,67,5713,23
borrowing_adult_artifacts,01/21/2026,20:33:17,0,typicality_rating,mushrooms,bell,mushroom_bell_2_2.png,2,2,61,7091,15
borrowing_adult_artifacts,01/21/2026,20:33:17,1,typicality_rating,shoes,sneaker,shoe_sneaker_2_1.png,2,1,100,2963,15
borrowing_adult_artifacts,01/21/2026,20:33:17,2,typicality_rating,carrots,carrot,carrot_carrot_3_0.png,3,0,94,3778,15
borrowing_adult_artifacts,01/21/2026,20:33:17,3,typicality_rating,flowers,star,flower_star_2_1.png,2,1,91,5266,15
borrowing_adult_artifacts,01/21/2026,20:33:17,4,typicality_rating,shells,urn,shell_urn_2_2.png,2,2,81,4163,15
borrowing_adult_artifacts,01/21/2026,20:33:17,5,typicality_rating,apples,apple,apple_apple_4_0.png,4,0,98,2529,15
borrowing_adult_artifacts,01/21/2026,20:33:17,6,typicality_rating,leaves,oak,leaf_oak_2_1.png,2,1,100,2747,15
borrowing_adult_artifacts,01/21/2026,20:33:17,7,typicality_rating,leaves,droplet,leaf_droplet_2_1.png,2,1,100,2696,15
borrowing_adult_artifacts,01/21/2026,20:33:17,8,typicality_rating,mushrooms,disc,mushroom_disc_2_2.png,2,2,50,3463,15
borrowing_adult_artifacts,01/21/2026,20:33:17,9,typicality_rating,spoons,square,spoon_square_2_2.png,2,2,96,5784,15
borrowing_adult_artifacts,01/21/2026,20:33:17,10,typicality_rating,mushrooms,enoki,mushroom_enoki_2_1.png,2,1,50,2264,15
borrowing_adult_artifacts,01/21/2026,20:33:17,11,typicality_rating,apples,apple,apple_apple_3_0.png,3,0,99,6981,15
borrowing_adult_artifacts,01/21/2026,20:33:17,12,typicality_rating,cups,glass,cup_glass_2_1.png,2,1,61,4316,15
borrowing_adult_artifacts,01/21/2026,20:33:17,13,typicality_rating,shells,fan,shell_fan_2_1.png,2,1,33,3497,15
borrowing_adult_artifacts,01/21/2026,20:33:17,14,typicality_rating,broccoli,broccoli,broccoli_broccoli_4_0.png,4,0,71,2948,15
borrowing_adult_artifacts,01/21/2026,20:33:17,15,typicality_rating,shells,spiral,shell_spiral_2_1.png,2,1,30,4814,15
borrowing_adult_artifacts,01/21/2026,20:33:17,16,typicality_rating,strawberries,strawberry,strawberry_strawberry_3_0.png,3,0,100,2947,15
borrowing_adult_artifacts,01/21/2026,20:33:17,17,typicality_rating,spoons,soup,spoon_soup_2_1.png,2,1,62,2514,15
borrowing_adult_artifacts,01/21/2026,20:33:17,18,typicality_rating,leaves,heart,leaf_heart_2_2.png,2,2,39,3764,15
borrowing_adult_artifacts,01/21/2026,20:33:17,19,typicality_rating,hats,ballcap,hat_ballcap_2_1.png,2,1,77,21880,15
borrowing_adult_artifacts,01/21/2026,20:33:17,20,typicality_rating,carrots,carrot,carrot_carrot_4_0.png,4,0,79,2713,15
borrowing_adult_artifacts,01/21/2026,20:33:17,21,typicality_rating,cups,twohandled,cup_twohandled_2_2.png,2,2,0,2830,15
borrowing_adult_artifacts,01/21/2026,20:33:17,22,typicality_rating,hats,sun,hat_sun_2_1.png,2,1,40,3581,15
borrowing_adult_artifacts,01/21/2026,20:33:17,23,typicality_rating,flowers,round,flower_round_2_1.png,2,1,61,2364,15
borrowing_adult_artifacts,01/21/2026,20:33:17,24,typicality_rating,strawberries,strawberry,strawberry_strawberry_4_0.png,4,0,95,2364,15
borrowing_adult_artifacts,01/21/2026,20:33:17,25,typicality_rating,flowers,trumpet,flower_trumpet_2_2.png,2,2,23,3280,15
borrowing_adult_artifacts,01/21/2026,20:33:17,26,typicality_rating,leaves,bean,leaf_bean_2_2.png,2,2,2,3899,15
borrowing_adult_artifacts,01/21/2026,20:33:17,27,typicality_rating,hats,party,hat_party_2_2.png,2,2,16,5247,15
borrowing_adult_artifacts,01/21/2026,20:33:17,28,typicality_rating,cups,teacup,cup_teacup_2_1.png,2,1,74,2564,15
borrowing_adult_artifacts,01/21/2026,20:33:17,29,typicality_rating,broccoli,broccoli,broccoli_broccoli_3_0.png,3,0,68,3448,15
borrowing_adult_artifacts,01/21/2026,20:33:17,30,typicality_rating,shoes,loafer,shoe_loafer_2_1.png,2,1,34,5397,15
borrowing_adult_artifacts,01/21/2026,20:33:17,31,typicality_rating,shells,stingray,shell_stingray_2_2.png,2,2,0,2930,15
borrowing_adult_artifacts,01/21/2026,20:33:17,32,typicality_rating,mushrooms,toadstool,mushroom_toadstool_2_1.png,2,1,64,2564,15
borrowing_adult_artifacts,01/21/2026,20:33:17,33,typicality_rating,shoes,elf,shoe_elf_2_2.png,2,2,0,3350,15
borrowing_adult_artifacts,01/21/2026,20:33:17,34,typicality_rating,hats,jester,hat_jester_2_2.png,2,2,4,2630,15
borrowing_adult_artifacts,01/21/2026,20:33:17,35,typicality_rating,cups,sherry,cup_sherry_2_2.png,2,2,0,3083,15
borrowing_adult_artifacts,01/21/2026,20:33:17,36,typicality_rating,shoes,ghillie,shoe_ghillie_2_2.png,2,2,13,3349,15
borrowing_adult_artifacts,01/21/2026,20:33:17,37,typicality_rating,spoons,teaspoon,spoon_teaspoon_2_1.png,2,1,74,3214,15
borrowing_adult_artifacts,01/21/2026,20:33:17,38,typicality_rating,spoons,slotted,spoon_slotted_2_2.png,2,2,79,3247,15
borrowing_adult_artifacts,01/21/2026,20:33:17,39,typicality_rating,flowers,iris,flower_iris_2_2.png,2,2,18,2531,15
borrowing_adult_artifacts,01/21/2026,18:16:29,0,typicality_rating,apples,apple,apple_apple_4_0.png,4,0,71,9321,24
borrowing_adult_artifacts,01/21/2026,18:16:29,1,typicality_rating,hats,sun,hat_sun_2_1.png,2,1,65,2919,24
borrowing_adult_artifacts,01/21/2026,18:16:29,2,typicality_rating,spoons,soup,spoon_soup_2_1.png,2,1,70,2770,24
borrowing_adult_artifacts,01/21/2026,18:16:29,3,typicality_rating,spoons,slotted,spoon_slotted_2_2.png,2,2,17,3423,24
borrowing_adult_artifacts,01/21/2026,18:16:29,4,typicality_rating,shells,stingray,shell_stingray_2_2.png,2,2,9,3529,24
borrowing_adult_artifacts,01/21/2026,18:16:29,5,typicality_rating,carrots,carrot,carrot_carrot_4_0.png,4,0,63,3824,24
borrowing_adult_artifacts,01/21/2026,18:16:29,6,typicality_rating,flowers,iris,flower_iris_2_2.png,2,2,50,2683,24
borrowing_adult_artifacts,01/21/2026,18:16:29,7,typicality_rating,broccoli,broccoli,broccoli_broccoli_3_0.png,3,0,44,4080,24
borrowing_adult_artifacts,01/21/2026,18:16:29,8,typicality_rating,shoes,sneaker,shoe_sneaker_2_1.png,2,1,74,2643,24
borrowing_adult_artifacts,01/21/2026,18:16:29,9,typicality_rating,hats,jester,hat_jester_2_2.png,2,2,45,4136,24
borrowing_adult_artifacts,01/21/2026,18:16:29,10,typicality_rating,shoes,loafer,shoe_loafer_2_1.png,2,1,66,3173,24
borrowing_adult_artifacts,01/21/2026,18:16:29,11,typicality_rating,cups,twohandled,cup_twohandled_2_2.png,2,2,25,3297,24
borrowing_adult_artifacts,01/21/2026,18:16:29,12,typicality_rating,mushrooms,toadstool,mushroom_toadstool_2_1.png,2,1,50,2691,24
borrowing_adult_artifacts,01/21/2026,18:16:29,13,typicality_rating,flowers,star,flower_star_2_1.png,2,1,60,2789,24
borrowing_adult_artifacts,01/21/2026,18:16:29,14,typicality_rating,spoons,teaspoon,spoon_teaspoon_2_1.png,2,1,70,2491,24
borrowing_adult_artifacts,01/21/2026,18:16:29,15,typicality_rating,shoes,elf,shoe_elf_2_2.png,2,2,72,3591,24
borrowing_adult_artifacts,01/21/2026,18:16:29,16,typicality_rating,strawberries,strawberry,strawberry_strawberry_4_0.png,4,0,85,2599,24
borrowing_adult_artifacts,01/21/2026,18:16:29,17,typicality_rating,flowers,round,flower_round_2_1.png,2,1,75,2759,24
borrowing_adult_artifacts,01/21/2026,18:16:29,18,typicality_rating,strawberries,strawberry,strawberry_strawberry_3_0.png,3,0,89,3060,24
borrowing_adult_artifacts,01/21/2026,18:16:29,19,typicality_rating,cups,glass,cup_glass_2_1.png,2,1,73,3559,24
borrowing_adult_artifacts,01/21/2026,18:16:29,20,typicality_rating,shoes,ghillie,shoe_ghillie_2_2.png,2,2,61,3209,24
borrowing_adult_artifacts,01/21/2026,18:16:29,21,typicality_rating,hats,party,hat_party_2_2.png,2,2,45,3806,24
borrowing_adult_artifacts,01/21/2026,18:16:29,22,typicality_rating,apples,apple,apple_apple_3_0.png,3,0,69,3016,24
borrowing_adult_artifacts,01/21/2026,18:16:29,23,typicality_rating,flowers,trumpet,flower_trumpet_2_2.png,2,2,43,3183,24
borrowing_adult_artifacts,01/21/2026,18:16:29,24,typicality_rating,broccoli,broccoli,broccoli_broccoli_4_0.png,4,0,53,2138,24
borrowing_adult_artifacts,01/21/2026,18:16:29,25,typicality_rating,carrots,carrot,carrot_carrot_3_0.png,3,0,64,3188,24
borrowing_adult_artifacts,01/21/2026,18:16:29,26,typicality_rating,shells,spiral,shell_spiral_2_1.png,2,1,79,6917,24
borrowing_adult_artifacts,01/21/2026,18:16:29,27,typicality_rating,cups,teacup,cup_teacup_2_1.png,2,1,94,3624,24
borrowing_adult_artifacts,01/21/2026,18:16:29,28,typicality_rating,cups,sherry,cup_sherry_2_2.png,2,2,55,4273,24
borrowing_adult_artifacts,01/21/2026,18:16:29,29,typicality_rating,mushrooms,enoki,mushroom_enoki_2_1.png,2,1,67,2836,24
borrowing_adult_artifacts,01/21/2026,18:16:29,30,typicality_rating,mushrooms,bell,mushroom_bell_2_2.png,2,2,48,4135,24
borrowing_adult_artifacts,01/21/2026,18:16:29,31,typicality_rating,mushrooms,disc,mushroom_disc_2_2.png,2,2,65,2394,24
borrowing_adult_artifacts,01/21/2026,18:16:29,32,typicality_rating,spoons,square,spoon_square_2_2.png,2,2,29,3499,24
borrowing_adult_artifacts,01/21/2026,18:16:29,33,typicality_rating,leaves,bean,leaf_bean_2_2.png,2,2,0,4087,24
borrowing_adult_artifacts,01/21/2026,18:16:29,34,typicality_rating,leaves,heart,leaf_heart_2_2.png,2,2,19,3166,24
borrowing_adult_artifacts,01/21/2026,18:16:29,35,typicality_rating,shells,urn,shell_urn_2_2.png,2,2,32,4175,24
borrowing_adult_artifacts,01/21/2026,18:16:29,36,typicality_rating,hats,ballcap,hat_ballcap_2_1.png,2,1,81,2595,24
borrowing_adult_artifacts,01/21/2026,18:16:29,37,typicality_rating,leaves,oak,leaf_oak_2_1.png,2,1,63,3099,24
borrowing_adult_artifacts,01/21/2026,18:16:29,38,typicality_rating,leaves,droplet,leaf_droplet_2_1.png,2,1,65,2651,24
borrowing_adult_artifacts,01/21/2026,18:16:29,39,typicality_rating,shells,fan,shell_fan_2_1.png,2,1,12,4311,24
borrowing_adult_artifacts,01/21/2026,17:16:56,0,typicality_rating,spoons,teaspoon,spoon_teaspoon_1_1.png,1,1,100,6525,16
borrowing_adult_artifacts,01/21/2026,17:16:56,1,typicality_rating,strawberries,strawberry,strawberry_strawberry_1_0.png,1,0,100,4211,16
borrowing_adult_artifacts,01/21/2026,17:16:56,2,typicality_rating,hats,jester,hat_jester_1_2.png,1,2,0,4332,16
borrowing_adult_artifacts,01/21/2026,17:16:56,3,typicality_rating,leaves,heart,leaf_heart_1_2.png,1,2,100,6321,16
borrowing_adult_artifacts,01/21/2026,17:16:56,4,typicality_rating,shells,stingray,shell_stingray_1_2.png,1,2,50,14636,16
borrowing_adult_artifacts,01/21/2026,17:16:56,5,typicality_rating,spoons,slotted,spoon_slotted_1_2.png,1,2,100,3949,16
borrowing_adult_artifacts,01/21/2026,17:16:56,6,typicality_rating,shells,fan,shell_fan_1_1.png,1,1,43,8316,16
borrowing_adult_artifacts,01/21/2026,17:16:56,7,typicality_rating,carrots,carrot,carrot_carrot_1_0.png,1,0,100,3681,16
borrowing_adult_artifacts,01/21/2026,17:16:56,8,typicality_rating,shells,spiral,shell_spiral_1_1.png,1,1,0,8101,16
borrowing_adult_artifacts,01/21/2026,17:16:56,9,typicality_rating,leaves,oak,leaf_oak_1_1.png,1,1,100,3625,16
borrowing_adult_artifacts,01/21/2026,17:16:56,10,typicality_rating,broccoli,broccoli,broccoli_broccoli_2_0.png,2,0,100,4542,16
borrowing_adult_artifacts,01/21/2026,17:16:56,11,typicality_rating,strawberries,strawberry,strawberry_strawberry_2_0.png,2,0,100,3376,16
borrowing_adult_artifacts,01/21/2026,17:16:56,12,typicality_rating,apples,apple,apple_apple_1_0.png,1,0,100,3280,16
borrowing_adult_artifacts,01/21/2026,17:16:56,13,typicality_rating,flowers,trumpet,flower_trumpet_1_2.png,1,2,100,3696,16
borrowing_adult_artifacts,01/21/2026,17:16:56,14,typicality_rating,cups,twohandled,cup_twohandled_1_2.png,1,2,100,4674,16
borrowing_adult_artifacts,01/21/2026,17:16:56,15,typicality_rating,shells,urn,shell_urn_1_2.png,1,2,50,5784,16
borrowing_adult_artifacts,01/21/2026,17:16:56,16,typicality_rating,carrots,carrot,carrot_carrot_2_0.png,2,0,100,3021,16
borrowing_adult_artifacts,01/21/2026,17:16:56,17,typicality_rating,mushrooms,disc,mushroom_disc_1_2.png,1,2,100,3136,16
borrowing_adult_artifacts,01/21/2026,17:16:56,18,typicality_rating,flowers,iris,flower_iris_1_2.png,1,2,100,6389,16
borrowing_adult_artifacts,01/21/2026,17:16:56,19,typicality_rating,flowers,star,flower_star_1_1.png,1,1,100,3651,16
borrowing_adult_artifacts,01/21/2026,17:16:56,20,typicality_rating,cups,sherry,cup_sherry_1_2.png,1,2,100,3372,16
borrowing_adult_artifacts,01/21/2026,17:16:56,21,typicality_rating,spoons,square,spoon_square_1_2.png,1,2,100,4291,16
borrowing_adult_artifacts,01/21/2026,17:16:56,22,typicality_rating,mushrooms,enoki,mushroom_enoki_1_1.png,1,1,100,3495,16
borrowing_adult_artifacts,01/21/2026,17:16:56,23,typicality_rating,leaves,bean,leaf_bean_1_2.png,1,2,100,3285,16
borrowing_adult_artifacts,01/21/2026,17:16:56,24,typicality_rating,spoons,soup,spoon_soup_1_1.png,1,1,100,3584,16
borrowing_adult_artifacts,01/21/2026,17:16:56,25,typicality_rating,leaves,droplet,leaf_droplet_1_1.png,1,1,100,3041,16
borrowing_adult_artifacts,01/21/2026,17:16:56,26,typicality_rating,broccoli,broccoli,broccoli_broccoli_1_0.png,1,0,100,3216,16
borrowing_adult_artifacts,01/21/2026,17:16:56,27,typicality_rating,shoes,loafer,shoe_loafer_1_1.png,1,1,100,4418,16
borrowing_adult_artifacts,01/21/2026,17:16:56,28,typicality_rating,cups,glass,cup_glass_1_1.png,1,1,100,6639,16
borrowing_adult_artifacts,01/21/2026,17:16:56,29,typicality_rating,mushrooms,toadstool,mushroom_toadstool_1_1.png,1,1,100,3317,16
borrowing_adult_artifacts,01/21/2026,17:16:56,30,typicality_rating,mushrooms,bell,mushroom_bell_1_2.png,1,2,100,3933,16
borrowing_adult_artifacts,01/21/2026,17:16:56,31,typicality_rating,flowers,round,flower_round_1_1.png,1,1,100,3451,16
borrowing_adult_artifacts,01/21/2026,17:16:56,32,typicality_rating,hats,party,hat_party_1_2.png,1,2,0,10057,16
borrowing_adult_artifacts,01/21/2026,17:16:56,33,typicality_rating,shoes,ghillie,shoe_ghillie_1_2.png,1,2,100,4089,16
borrowing_adult_artifacts,01/21/2026,17:16:56,34,typicality_rating,shoes,elf,shoe_elf_1_2.png,1,2,0,4684,16
borrowing_adult_artifacts,01/21/2026,17:16:56,35,typicality_rating,apples,apple,apple_apple_2_0.png,2,0,100,3140,16
borrowing_adult_artifacts,01/21/2026,17:16:56,36,typicality_rating,cups,teacup,cup_teacup_1_1.png,1,1,100,2956,16
borrowing_adult_artifacts,01/21/2026,17:16:56,37,typicality_rating,shoes,sneaker,shoe_sneaker_1_1.png,1,1,100,3144,16
borrowing_adult_artifacts,01/21/2026,17:16:56,38,typicality_rating,hats,ballcap,hat_ballcap_1_1.png,1,1,100,3189,16
borrowing_adult_artifacts,01/21/2026,17:16:56,39,typicality_rating,hats,sun,hat_sun_1_1.png,1,1,100,2897,16
borrowing_adult_artifacts,01/21/2026,17:15:48,0,typicality_rating,leaves,bean,leaf_bean_1_2.png,1,2,2,4661,21
borrowing_adult_artifacts,01/21/2026,17:15:48,1,typicality_rating,spoons,soup,spoon_soup_1_1.png,1,1,100,4316,21
borrowing_adult_artifacts,01/21/2026,17:15:48,2,typicality_rating,hats,ballcap,hat_ballcap_1_1.png,1,1,100,3081,21
borrowing_adult_artifacts,01/21/2026,17:15:48,3,typicality_rating,apples,apple,apple_apple_1_0.png,1,0,88,6647,21
borrowing_adult_artifacts,01/21/2026,17:15:48,4,typicality_rating,spoons,teaspoon,spoon_teaspoon_1_1.png,1,1,100,4082,21
borrowing_adult_artifacts,01/21/2026,17:15:48,5,typicality_rating,apples,apple,apple_apple_2_0.png,2,0,93,3966,21
borrowing_adult_artifacts,01/21/2026,17:15:48,6,typicality_rating,broccoli,broccoli,broccoli_broccoli_2_0.png,2,0,82,5230,21
borrowing_adult_artifacts,01/21/2026,17:15:48,7,typicality_rating,strawberries,strawberry,strawberry_strawberry_1_0.png,1,0,75,3796,21
borrowing_adult_artifacts,01/21/2026,17:15:48,8,typicality_rating,flowers,iris,flower_iris_1_2.png,1,2,62,6865,21
borrowing_adult_artifacts,01/21/2026,17:15:48,9,typicality_rating,spoons,square,spoon_square_1_2.png,1,2,13,3831,21
borrowing_adult_artifacts,01/21/2026,17:15:48,10,typicality_rating,carrots,carrot,carrot_carrot_2_0.png,2,0,94,4131,21
borrowing_adult_artifacts,01/21/2026,17:15:48,11,typicality_rating,mushrooms,enoki,mushroom_enoki_1_1.png,1,1,76,3748,21
borrowing_adult_artifacts,01/21/2026,17:15:48,12,typicality_rating,cups,glass,cup_glass_1_1.png,1,1,74,4982,21
borrowing_adult_artifacts,01/21/2026,17:15:48,13,typicality_rating,shells,urn,shell_urn_1_2.png,1,2,54,5529,21
borrowing_adult_artifacts,01/21/2026,17:15:48,14,typicality_rating,hats,jester,hat_jester_1_2.png,1,2,10,4466,21
borrowing_adult_artifacts,01/21/2026,17:15:48,15,typicality_rating,flowers,round,flower_round_1_1.png,1,1,94,3050,21
borrowing_adult_artifacts,01/21/2026,17:15:48,16,typicality_rating,flowers,trumpet,flower_trumpet_1_2.png,1,2,33,4713,21
borrowing_adult_artifacts,01/21/2026,17:15:48,17,typicality_rating,shoes,ghillie,shoe_ghillie_1_2.png,1,2,79,2648,21
borrowing_adult_artifacts,01/21/2026,17:15:48,18,typicality_rating,mushrooms,disc,mushroom_disc_1_2.png,1,2,41,4915,21
borrowing_adult_artifacts,01/21/2026,17:15:48,19,typicality_rating,carrots,carrot,carrot_carrot_1_0.png,1,0,87,3299,21
borrowing_adult_artifacts,01/21/2026,17:15:48,20,typicality_rating,shells,spiral,shell_spiral_1_1.png,1,1,90,3998,21
borrowing_adult_artifacts,01/21/2026,17:15:48,21,typicality_rating,strawberries,strawberry,strawberry_strawberry_2_0.png,2,0,94,3615,21
borrowing_adult_artifacts,01/21/2026,17:15:48,22,typicality_rating,hats,party,hat_party_1_2.png,1,2,2,4296,21
borrowing_adult_artifacts,01/21/2026,17:15:48,23,typicality_rating,flowers,star,flower_star_1_1.png,1,1,74,3383,21
borrowing_adult_artifacts,01/21/2026,17:15:48,24,typicality_rating,shoes,sneaker,shoe_sneaker_1_1.png,1,1,88,2982,21
borrowing_adult_artifacts,01/21/2026,17:15:48,25,typicality_rating,cups,twohandled,cup_twohandled_1_2.png,1,2,17,3846,21
borrowing_adult_artifacts,01/21/2026,17:15:48,26,typicality_rating,shoes,elf,shoe_elf_1_2.png,1,2,0,3083,21
borrowing_adult_artifacts,01/21/2026,17:15:48,27,typicality_rating,leaves,heart,leaf_heart_1_2.png,1,2,0,3382,21
borrowing_adult_artifacts,01/21/2026,17:15:48,28,typicality_rating,leaves,droplet,leaf_droplet_1_1.png,1,1,99,2824,21
borrowing_adult_artifacts,01/21/2026,17:15:48,29,typicality_rating,shells,fan,shell_fan_1_1.png,1,1,100,3471,21
borrowing_adult_artifacts,01/21/2026,17:15:48,30,typicality_rating,broccoli,broccoli,broccoli_broccoli_1_0.png,1,0,98,3163,21
borrowing_adult_artifacts,01/21/2026,17:15:48,31,typicality_rating,shells,stingray,shell_stingray_1_2.png,1,2,10,3716,21
borrowing_adult_artifacts,01/21/2026,17:15:48,32,typicality_rating,mushrooms,toadstool,mushroom_toadstool_1_1.png,1,1,87,2908,21
borrowing_adult_artifacts,01/21/2026,17:15:48,33,typicality_rating,spoons,slotted,spoon_slotted_1_2.png,1,2,50,4071,21
borrowing_adult_artifacts,01/21/2026,17:15:48,34,typicality_rating,cups,sherry,cup_sherry_1_2.png,1,2,2,3098,21
borrowing_adult_artifacts,01/21/2026,17:15:48,35,typicality_rating,mushrooms,bell,mushroom_bell_1_2.png,1,2,25,3825,21
borrowing_adult_artifacts,01/21/2026,17:15:48,36,typicality_rating,leaves,oak,leaf_oak_1_1.png,1,1,66,4503,21
borrowing_adult_artifacts,01/21/2026,17:15:48,37,typicality_rating,hats,sun,hat_sun_1_1.png,1,1,64,2431,21
borrowing_adult_artifacts,01/21/2026,17:15:48,38,typicality_rating,cups,teacup,cup_teacup_1_1.png,1,1,100,3010,21
borrowing_adult_artifacts,01/21/2026,17:15:48,39,typicality_rating,shoes,loafer,shoe_loafer_1_1.png,1,1,72,5554,21
borrowing_adult_artifacts,01/21/2026,20:16:59,0,typicality_rating,mushrooms,toadstool,mushroom_toadstool_1_1.png,1,1,75,7380,22
borrowing_adult_artifacts,01/21/2026,20:16:59,1,typicality_rating,strawberries,strawberry,strawberry_strawberry_2_0.png,2,0,82,3172,22
borrowing_adult_artifacts,01/21/2026,20:16:59,2,typicality_rating,hats,jester,hat_jester_1_2.png,1,2,77,2843,22
borrowing_adult_artifacts,01/21/2026,20:16:59,3,typicality_rating,shells,spiral,shell_spiral_1_1.png,1,1,87,3060,22
borrowing_adult_artifacts,01/21/2026,20:16:59,4,typicality_rating,flowers,star,flower_star_1_1.png,1,1,79,3547,22
borrowing_adult_artifacts,01/21/2026,20:16:59,5,typicality_rating,shells,urn,shell_urn_1_2.png,1,2,77,3170,22
borrowing_adult_artifacts,01/21/2026,20:16:59,6,typicality_rating,spoons,slotted,spoon_slotted_1_2.png,1,2,80,4314,22
borrowing_adult_artifacts,01/21/2026,20:16:59,7,typicality_rating,apples,apple,apple_apple_2_0.png,2,0,80,3883,22
borrowing_adult_artifacts,01/21/2026,20:16:59,8,typicality_rating,hats,party,hat_party_1_2.png,1,2,82,3587,22
borrowing_adult_artifacts,01/21/2026,20:16:59,9,typicality_rating,flowers,iris,flower_iris_1_2.png,1,2,83,2939,22
borrowing_adult_artifacts,01/21/2026,20:16:59,10,typicality_rating,mushrooms,disc,mushroom_disc_1_2.png,1,2,72,4308,22
borrowing_adult_artifacts,01/21/2026,20:16:59,11,typicality_rating,cups,sherry,cup_sherry_1_2.png,1,2,58,4124,22
borrowing_adult_artifacts,01/21/2026,20:16:59,12,typicality_rating,cups,teacup,cup_teacup_1_1.png,1,1,83,2491,22
borrowing_adult_artifacts,01/21/2026,20:16:59,13,typicality_rating,mushrooms,enoki,mushroom_enoki_1_1.png,1,1,40,2683,22
borrowing_adult_artifacts,01/21/2026,20:16:59,14,typicality_rating,leaves,heart,leaf_heart_1_2.png,1,2,45,2972,22
borrowing_adult_artifacts,01/21/2026,20:16:59,15,typicality_rating,shoes,elf,shoe_elf_1_2.png,1,2,69,2965,22
borrowing_adult_artifacts,01/21/2026,20:16:59,16,typicality_rating,broccoli,broccoli,broccoli_broccoli_1_0.png,1,0,70,3508,22
borrowing_adult_artifacts,01/21/2026,20:16:59,17,typicality_rating,apples,apple,apple_apple_1_0.png,1,0,73,2572,22
borrowing_adult_artifacts,01/21/2026,20:16:59,18,typicality_rating,shoes,loafer,shoe_loafer_1_1.png,1,1,76,3212,22
borrowing_adult_artifacts,01/21/2026,20:16:59,19,typicality_rating,hats,ballcap,hat_ballcap_1_1.png,1,1,77,3748,22
borrowing_adult_artifacts,01/21/2026,20:16:59,20,typicality_rating,leaves,bean,leaf_bean_1_2.png,1,2,26,3275,22
borrowing_adult_artifacts,01/21/2026,20:16:59,21,typicality_rating,spoons,soup,spoon_soup_1_1.png,1,1,79,3683,22
borrowing_adult_artifacts,01/21/2026,20:16:59,22,typicality_rating,strawberries,strawberry,strawberry_strawberry_1_0.png,1,0,75,6436,22
borrowing_adult_artifacts,01/21/2026,20:16:59,23,typicality_rating,shells,stingray,shell_stingray_1_2.png,1,2,20,3899,22
borrowing_adult_artifacts,01/21/2026,20:16:59,24,typicality_rating,cups,twohandled,cup_twohandled_1_2.png,1,2,21,4796,22
borrowing_adult_artifacts,01/21/2026,20:16:59,25,typicality_rating,spoons,teaspoon,spoon_teaspoon_1_1.png,1,1,75,18724,22
borrowing_adult_artifacts,01/21/2026,20:16:59,26,typicality_rating,flowers,trumpet,flower_trumpet_1_2.png,1,2,35,18516,22
borrowing_adult_artifacts,01/21/2026,20:16:59,27,typicality_rating,shells,fan,shell_fan_1_1.png,1,1,25,2844,22
borrowing_adult_artifacts,01/21/2026,20:16:59,28,typicality_rating,broccoli,broccoli,broccoli_broccoli_2_0.png,2,0,53,2172,22
borrowing_adult_artifacts,01/21/2026,20:16:59,29,typicality_rating,spoons,square,spoon_square_1_2.png,1,2,44,2803,22
borrowing_adult_artifacts,01/21/2026,20:16:59,30,typicality_rating,flowers,round,flower_round_1_1.png,1,1,62,3116,22
borrowing_adult_artifacts,01/21/2026,20:16:59,31,typicality_rating,carrots,carrot,carrot_carrot_1_0.png,1,0,68,2108,22
borrowing_adult_artifacts,01/21/2026,20:16:59,32,typicality_rating,cups,glass,cup_glass_1_1.png,1,1,60,2908,22
borrowing_adult_artifacts,01/21/2026,20:16:59,33,typicality_rating,hats,sun,hat_sun_1_1.png,1,1,72,2932,22
borrowing_adult_artifacts,01/21/2026,20:16:59,34,typicality_rating,leaves,oak,leaf_oak_1_1.png,1,1,61,2940,22
borrowing_adult_artifacts,01/21/2026,20:16:59,35,typicality_rating,carrots,carrot,carrot_carrot_2_0.png,2,0,69,1956,22
borrowing_adult_artifacts,01/21/2026,20:16:59,36,typicality_rating,leaves,droplet,leaf_droplet_1_1.png,1,1,73,1700,22
borrowing_adult_artifacts,01/21/2026,20:16:59,37,typicality_rating,mushrooms,bell,mushroom_bell_1_2.png,1,2,53,2149,22
borrowing_adult_artifacts,01/21/2026,20:16:59,38,typicality_rating,shoes,sneaker,shoe_sneaker_1_1.png,1,1,69,2291,22
borrowing_adult_artifacts,01/21/2026,20:16:59,39,typicality_rating,shoes,ghillie,shoe_ghillie_1_2.png,1,2,65,1972,22
borrowing_adult_artifacts,01/22/2026,01:26:59,0,typicality_rating,mushrooms,toadstool,mushroom_toadstool_2_1.png,2,1,89,12751,1
borrowing_adult_artifacts,01/22/2026,01:26:59,1,typicality_rating,shoes,elf,shoe_elf_2_2.png,2,2,13,4763,1
borrowing_adult_artifacts,01/22/2026,01:26:59,2,typicality_rating,spoons,slotted,spoon_slotted_2_2.png,2,2,20,5692,1
borrowing_adult_artifacts,01/22/2026,01:26:59,3,typicality_rating,leaves,droplet,leaf_droplet_2_1.png,2,1,99,3147,1
borrowing_adult_artifacts,01/22/2026,01:26:59,4,typicality_rating,shoes,ghillie,shoe_ghillie_2_2.png,2,2,48,6084,1
borrowing_adult_artifacts,01/22/2026,01:26:59,5,typicality_rating,strawberries,strawberry,strawberry_strawberry_4_0.png,4,0,100,2206,1
borrowing_adult_artifacts,01/22/2026,01:26:59,6,typicality_rating,apples,apple,apple_apple_3_0.png,3,0,91,2731,1
borrowing_adult_artifacts,01/22/2026,01:26:59,7,typicality_rating,cups,teacup,cup_teacup_2_1.png,2,1,90,2645,1
borrowing_adult_artifacts,01/22/2026,01:26:59,8,typicality_rating,cups,glass,cup_glass_2_1.png,2,1,89,2852,1
borrowing_adult_artifacts,01/22/2026,01:26:59,9,typicality_rating,shoes,sneaker,shoe_sneaker_2_1.png,2,1,91,2878,1
borrowing_adult_artifacts,01/22/2026,01:26:59,10,typicality_rating,shells,spiral,shell_spiral_2_1.png,2,1,93,2746,1
borrowing_adult_artifacts,01/22/2026,01:26:59,11,typicality_rating,apples,apple,apple_apple_4_0.png,4,0,93,2347,1
borrowing_adult_artifacts,01/22/2026,01:26:59,12,typicality_rating,spoons,soup,spoon_soup_2_1.png,2,1,76,4910,1
borrowing_adult_artifacts,01/22/2026,01:26:59,13,typicality_rating,mushrooms,disc,mushroom_disc_2_2.png,2,2,51,5318,1
borrowing_adult_artifacts,01/22/2026,01:26:59,14,typicality_rating,hats,ballcap,hat_ballcap_2_1.png,2,1,92,2965,1
borrowing_adult_artifacts,01/22/2026,01:26:59,15,typicality_rating,spoons,teaspoon,spoon_teaspoon_2_1.png,2,1,89,3188,1
borrowing_adult_artifacts,01/22/2026,01:26:59,16,typicality_rating,carrots,carrot,carrot_carrot_3_0.png,3,0,95,2589,1
borrowing_adult_artifacts,01/22/2026,01:26:59,17,typicality_rating,flowers,trumpet,flower_trumpet_2_2.png,2,2,92,3228,1
borrowing_adult_artifacts,01/22/2026,01:26:59,18,typicality_rating,cups,sherry,cup_sherry_2_2.png,2,2,28,4088,1
borrowing_adult_artifacts,01/22/2026,01:26:59,19,typicality_rating,broccoli,broccoli,broccoli_broccoli_4_0.png,4,0,100,3821,1
borrowing_adult_artifacts,01/22/2026,01:26:59,20,typicality_rating,strawberries,strawberry,strawberry_strawberry_3_0.png,3,0,100,2441,1
borrowing_adult_artifacts,01/22/2026,01:26:59,21,typicality_rating,hats,sun,hat_sun_2_1.png,2,1,93,2882,1
borrowing_adult_artifacts,01/22/2026,01:26:59,22,typicality_rating,mushrooms,bell,mushroom_bell_2_2.png,2,2,29,3370,1
borrowing_adult_artifacts,01/22/2026,01:26:59,23,typicality_rating,hats,party,hat_party_2_2.png,2,2,20,3331,1
borrowing_adult_artifacts,01/22/2026,01:26:59,24,typicality_rating,leaves,bean,leaf_bean_2_2.png,2,2,31,3775,1
borrowing_adult_artifacts,01/22/2026,01:26:59,25,typicality_rating,carrots,carrot,carrot_carrot_4_0.png,4,0,96,2678,1
borrowing_adult_artifacts,01/22/2026,01:26:59,26,typicality_rating,flowers,iris,flower_iris_2_2.png,2,2,76,2809,1
borrowing_adult_artifacts,01/22/2026,01:26:59,27,typicality_rating,shells,urn,shell_urn_2_2.png,2,2,57,4707,1
borrowing_adult_artifacts,01/22/2026,01:26:59,28,typicality_rating,spoons,square,spoon_square_2_2.png,2,2,19,3282,1
borrowing_adult_artifacts,01/22/2026,01:26:59,29,typicality_rating,flowers,round,flower_round_2_1.png,2,1,94,2556,1
borrowing_adult_artifacts,01/22/2026,01:26:59,30,typicality_rating,leaves,oak,leaf_oak_2_1.png,2,1,83,2735,1
borrowing_adult_artifacts,01/22/2026,01:26:59,31,typicality_rating,flowers,star,flower_star_2_1.png,2,1,92,2397,1
borrowing_adult_artifacts,01/22/2026,01:26:59,32,typicality_rating,shoes,loafer,shoe_loafer_2_1.png,2,1,63,3017,1
borrowing_adult_artifacts,01/22/2026,01:26:59,33,typicality_rating,leaves,heart,leaf_heart_2_2.png,2,2,43,2831,1
borrowing_adult_artifacts,01/22/2026,01:26:59,34,typicality_rating,broccoli,broccoli,broccoli_broccoli_3_0.png,3,0,100,2526,1
borrowing_adult_artifacts,01/22/2026,01:26:59,35,typicality_rating,hats,jester,hat_jester_2_2.png,2,2,7,2669,1
borrowing_adult_artifacts,01/22/2026,01:26:59,36,typicality_rating,shells,fan,shell_fan_2_1.png,2,1,54,3992,1
borrowing_adult_artifacts,01/22/2026,01:26:59,37,typicality_rating,cups,twohandled,cup_twohandled_2_2.png,2,2,16,3745,1
borrowing_adult_artifacts,01/22/2026,01:26:59,38,typicality_rating,mushrooms,enoki,mushroom_enoki_2_1.png,2,1,47,8414,1
borrowing_adult_artifacts,01/22/2026,01:26:59,39,typicality_rating,shells,stingray,shell_stingray_2_2.png,2,2,28,2808,1
borrowing_adult_artifacts,01/21/2026,20:19:04,0,typicality_rating,apples,apple,apple_apple_3_0.png,3,0,91,3746,26
borrowing_adult_artifacts,01/21/2026,20:19:04,1,typicality_rating,shells,stingray,shell_stingray_2_2.png,2,2,30,3722,26
borrowing_adult_artifacts,01/21/2026,20:19:04,2,typicality_rating,flowers,trumpet,flower_trumpet_2_2.png,2,2,68,2717,26
borrowing_adult_artifacts,01/21/2026,20:19:04,3,typicality_rating,flowers,round,flower_round_2_1.png,2,1,100,2278,26
borrowing_adult_artifacts,01/21/2026,20:19:04,4,typicality_rating,shells,spiral,shell_spiral_2_1.png,2,1,19,3335,26
borrowing_adult_artifacts,01/21/2026,20:19:04,5,typicality_rating,shells,urn,shell_urn_2_2.png,2,2,28,3218,26
borrowing_adult_artifacts,01/21/2026,20:19:04,6,typicality_rating,spoons,square,spoon_square_2_2.png,2,2,80,3106,26
borrowing_adult_artifacts,01/21/2026,20:19:04,7,typicality_rating,hats,party,hat_party_2_2.png,2,2,88,3552,26
borrowing_adult_artifacts,01/21/2026,20:19:04,8,typicality_rating,strawberries,strawberry,strawberry_strawberry_4_0.png,4,0,100,2051,26
borrowing_adult_artifacts,01/21/2026,20:19:04,9,typicality_rating,flowers,star,flower_star_2_1.png,2,1,100,2043,26
borrowing_adult_artifacts,01/21/2026,20:19:04,10,typicality_rating,shoes,elf,shoe_elf_2_2.png,2,2,82,3820,26
borrowing_adult_artifacts,01/21/2026,20:19:04,11,typicality_rating,broccoli,broccoli,broccoli_broccoli_4_0.png,4,0,93,7018,26
borrowing_adult_artifacts,01/21/2026,20:19:04,12,typicality_rating,flowers,iris,flower_iris_2_2.png,2,2,72,9203,26
borrowing_adult_artifacts,01/21/2026,20:19:04,13,typicality_rating,spoons,slotted,spoon_slotted_2_2.png,2,2,79,1654,26
